RecordId,RecordTimeSeconds,RecordTimeNanoSeconds,OrientationX,OrientationY,OrientationZ,OrientationW,AngularAccelerationX,AngularAccelerationY,AngularAccelerationZ,LinearAccelerationX,LinearAccelerationY,LinearAccelerationZ,Roll,Pitch,Yaw,DeltaT,Velocityx,Velocityy,Velocityz
1,1515079474,914044593,-3.33455E-05,0.002538674,-0.145003602,-0.989427924,-0.01042328,0.032329254,0.004552992,0.027441381,-0.117536798,-9.383097649,-0.038402862,-0.288390407,16.67512717,10239957,0.000280999,-0.001203572,-0.096082519
2,1515079474,924261415,3.47653E-05,0.00241253,-0.145032331,-0.98942405,-0.008865937,0.024280826,0.004855718,0.072929427,-0.32968387,-9.90123558,-0.044037173,-0.272955033,16.67845785,10216822,0.001026106,-0.004571893,-0.19724168
3,1515079474,934462068,0.000101051,0.002355929,-0.145062029,-0.989419818,-0.011609407,0.011666568,0.005101506,0.107176289,-0.140299097,-10.02827549,-0.050619988,-0.265434436,16.68190738,10200653,0.002119374,-0.006003036,-0.299536639
4,1515079474,944709302,0.000177167,0.002281401,-0.145083219,-0.989416838,-0.012354997,0.021892693,0.004814228,0.015226889,-0.048843298,-10.13783073,-0.058016552,-0.255717926,16.68437037,10247234,0.002275407,-0.006503544,-0.403421363
5,1515079474,954925270,0.000275409,0.002102605,-0.14511238,-0.989412963,-0.014841335,0.045569547,0.005107097,0.071972832,-0.059000283,-9.694503784,-0.066189508,-0.233810881,16.68774762,10215968,0.003010679,-0.007106289,-0.502460103
6,1515079474,965207267,0.000389436,0.001851118,-0.145146117,-0.989408433,-0.01499439,0.055765711,0.004804046,0.367832005,-0.18235606,-10.08391476,-0.074942702,-0.203398914,16.69164441,10281997,0.006792727,-0.008981274,-0.606142884
7,1515079474,975474163,0.000495071,0.001662499,-0.145167306,-0.989405632,-0.014495632,0.034935452,0.004157207,0.562285602,-0.111405067,-10.35933113,-0.083785986,-0.180254814,16.69409284,10266896,0.012565655,-0.010125058,-0.71250106
8,1515079474,985702969,0.000581345,0.001599549,-0.145195797,-0.989401519,-0.01409858,0.010383797,0.003556143,0.411738813,0.071706817,-9.886381149,-0.092525315,-0.171679887,16.69739869,10228806,0.016777251,-0.009391583,-0.813626934
9,1515079474,995964251,0.0006545,0.001608915,-0.145218551,-0.989398122,-0.013385742,0.000618794,0.004178334,0.209101737,0.205483168,-9.745323181,-0.100979163,-0.171522294,16.70004764,10261282,0.018922903,-0.007283062,-0.913626444
10,1515079475,6190136,0.000729769,0.001569111,-0.14524056,-0.989394844,-0.012076897,0.01710186,0.00700224,0.17190443,0.030830361,-10.11717701,-0.108854275,-0.165754488,16.70260189,10225885,0.020680778,-0.006967794,-1.017083532
11,1515079475,16423723,0.000813831,0.001425993,-0.1452692,-0.98939085,-0.012359318,0.036999427,0.006006645,0.087969728,0.021108985,-10.22671604,-0.116007233,-0.148125809,16.70590993,10233587,0.021581024,-0.006751774,-1.121739521
12,1515079475,26671624,0.000910596,0.001213595,-0.145293638,-0.989387453,-0.013077789,0.046612989,0.004451492,0.108379669,0.041036557,-9.975363731,-0.1234453,-0.122431074,16.70871883,10247901,0.022691688,-0.006331235,-1.223966061
13,1515079475,36895049,0.000994699,0.001036557,-0.14531143,-0.989384949,-0.010434363,0.033658184,0.004576296,0.282491267,-0.123871461,-9.884771347,-0.130034707,-0.10095662,16.71076001,10223425,0.025579716,-0.007597626,-1.325022279
14,1515079475,47102584,0.001058658,0.000941506,-0.145328656,-0.989382446,-0.008811876,0.017434342,0.004813697,0.4735834,-0.013299922,-10.27227783,-0.135704774,-0.089112903,16.71274558,10207535,0.030413835,-0.007733385,-1.429876915
15,1515079475,57316814,0.00112754,0.000890317,-0.145351529,-0.989379048,-0.012231079,0.014813076,0.003968313,0.312609345,0.108259089,-9.989740372,-0.142663682,-0.08215888,16.71539189,10214230,0.033606899,-0.006627602,-1.53191442
16,1515079475,67613983,0.001205251,0.000787628,-0.145373464,-0.98937583,-0.011876849,0.02775469,0.004011224,0.16693455,-0.098828934,-9.696492195,-0.149765296,-0.069218835,16.71792078,10297169,0.035325852,-0.00764526,-1.631760839
17,1515079475,77912467,0.001294174,0.000624837,-0.14540185,-0.989371657,-0.012876077,0.038251322,0.005372024,0.327677816,-0.055455409,-9.964962959,-0.157136404,-0.049276704,16.72118556,10298484,0.038700437,-0.008216367,-1.734384851
18,1515079475,88275171,0.001385347,0.000476489,-0.14542383,-0.989368439,-0.0140433,0.028871475,0.003591145,0.478212446,0.053916059,-10.34162045,-0.165001965,-0.030935237,16.72370975,10362704,0.043656011,-0.007657651,-1.841552002
19,1515079475,98558929,0.00146966,0.000398796,-0.145439267,-0.989366055,-0.014973736,0.015582007,0.004930004,0.329290152,0.081100211,-9.927251816,-0.173266397,-0.020719172,16.72548558,10283758,0.047042351,-0.006823636,-1.943641458
20,1515079475,103682909,0.001548191,0.000367761,-0.145450905,-0.989364207,-0.015046539,0.009160748,0.004562151,0.205012321,0.037624247,-9.833490372,-0.181652678,-0.015889657,16.7268287,5123980,0.04809283,-0.00663085,-1.994028066
21,1515079475,113940981,0.001633024,0.000326307,-0.145466387,-0.989361823,-0.014765359,0.012618382,0.004574247,0.264543235,0.162394807,-10.11153412,-0.190579656,-0.009773017,16.72861523,10258072,0.050806534,-0.004964992,-2.097752911
22,1515079475,124179631,0.00172124,0.00022741,-0.145472974,-0.98936075,-0.013192942,0.025054492,0.003201386,0.156256571,0.272827089,-10.1445694,-0.198932404,0.002911067,16.72935908,10238650,0.05240639,-0.002171611,-2.201619606
23,1515079475,134435210,0.001810175,6.66244E-05,-0.145473689,-0.989360511,-0.010506012,0.037134979,0.003210058,0.07433591,0.359693229,-9.700340271,-0.206334876,0.022622345,16.72940852,10255579,0.053168748,0.001517251,-2.301102212
24,1515079475,144659131,0.001887952,-9.67207E-05,-0.145484552,-0.989358783,-0.009894572,0.033650462,0.002853687,0.371186912,0.351004481,-9.938923836,-0.212429263,0.042440049,16.7306315,10223921,0.056963734,0.005105893,-2.402716984
25,1515079475,154976403,0.001952144,-0.000204965,-0.145493075,-0.989357352,-0.008973459,0.020187581,0.004562223,0.514452875,0.320058048,-10.12803936,-0.21790181,0.055783988,16.7315931,10317272,0.062271484,0.008408019,-2.507210721
26,1515079475,165357109,0.001995265,-0.000239934,-0.14549616,-0.989356816,-0.008267669,0.007021375,0.002548153,0.190308303,0.322709858,-9.941363335,-0.222207448,0.060468074,16.73194093,10380706,0.064247019,0.011757975,-2.610409091
27,1515079475,175620528,0.002031559,-0.000269462,-0.145507813,-0.989355028,-0.005504143,0.010726636,0.003212375,0.008274062,0.246568754,-9.737091064,-0.225829083,0.064423538,16.73328236,10263419,0.064331939,0.014288614,-2.710344937
28,1515079475,185908081,0.002073651,-0.000365627,-0.145524696,-0.989352405,-0.004524397,0.025455192,0.003904774,0.193041176,0.288093925,-10.0345726,-0.228996483,0.076031713,16.73521448,10287553,0.06631786,0.017252395,-2.813576134
29,1515079475,196157251,0.002121526,-0.000506104,-0.145533651,-0.989350855,-0.0042726,0.030740401,0.003190598,0.237110406,0.267551482,-10.11238194,-0.232080779,0.092758238,16.73621746,10249170,0.068748045,0.019994576,-2.917219656
30,1515079475,206374076,0.002162725,-0.000654804,-0.145541549,-0.989349604,-0.002888048,0.030532498,0.003900403,0.119026244,0.237960562,-9.811441422,-0.23427092,0.110305446,16.73709888,10216825,0.069964115,0.022425777,-3.017461436
31,1515079475,216606863,0.002186049,-0.000750877,-0.14554657,-0.989348769,-0.001288801,0.016344462,0.004390671,0.224563047,0.162323192,-9.769661903,-0.235312356,0.121587621,16.73765873,10232787,0.072262021,0.024086796,-3.117432305
32,1515079475,226817965,0.002197996,-0.000805156,-0.14554961,-0.989348233,0.000679875,0.008309127,0.004475748,0.326747447,0.175012872,-10.16875553,-0.235761184,0.127941291,16.7379981,10211102,0.075598473,0.02587387,-3.221266505
33,1515079475,237010478,0.002207591,-0.000855482,-0.145551056,-0.989347935,0.001580458,0.013411297,0.003988663,0.045850642,0.270497024,-9.954584122,-0.23600947,0.133807152,16.73815387,10192513,0.076065806,0.028630915,-3.322728733
34,1515079475,247271746,0.002226459,-0.000975104,-0.145553023,-0.989347458,0.00011438,0.029085366,0.004645172,-0.093423568,0.308079273,-9.762322426,-0.236153096,0.147683981,16.73835493,10261268,0.075107162,0.031792199,-3.42290254
35,1515079475,257541878,0.002255385,-0.001155458,-0.145557582,-0.989346564,-0.00068317,0.039144393,0.004438557,0.148043662,0.113370329,-9.869773865,-0.236423717,0.168614437,16.73884444,10270132,0.076627589,0.032956527,-3.52426642
36,1515079475,267750614,0.002284057,-0.001335299,-0.14557822,-0.989343286,-0.000142941,0.035628397,0.003917845,0.360081136,-0.101277351,-10.17162704,-0.236670952,0.189486386,16.74119708,10208736,0.080303563,0.031922613,-3.628105875
37,1515079475,277993390,0.002301288,-0.001458481,-0.145595655,-0.989340425,-0.000202579,0.022686465,0.00449819,0.332016796,0.034125213,-10.04513359,-0.236565962,0.203743307,16.74318943,10242776,0.083704336,0.03227215,-3.730995929
38,1515079475,288180458,0.002324624,-0.001538069,-0.145608068,-0.989338458,-0.001987592,0.016310219,0.00404187,0.213240147,0.167493552,-9.767747879,-0.237881219,0.213158508,16.74460874,10187068,0.085876628,0.033978418,-3.83050064
39,1515079475,298419271,0.002347521,-0.001595733,-0.145622581,-0.989336133,-0.003045442,0.010999031,0.004468289,0.223813683,0.059520721,-10.04382038,-0.23951167,0.220081484,16.74627406,10238813,0.088168215,0.03458784,-3.933337439
40,1515079475,303533771,0.002374799,-0.001677105,-0.145628408,-0.98933512,-0.003004682,0.019434769,0.004706983,0.183266506,0.024527654,-9.982955933,-0.241245097,0.229763207,16.74692923,5114500,0.089105531,0.034713287,-3.984395267
41,1515079475,313765911,0.002404182,-0.001817295,-0.145641416,-0.989332914,-0.000429278,0.031893421,0.004705283,0.096790694,0.190652221,-9.817228317,-0.242233867,0.246150064,16.74840513,10232140,0.090095907,0.036664067,-4.084846522
42,1515079475,324068725,0.002443532,-0.001985811,-0.145650327,-0.989331186,-0.001922921,0.033734553,0.003890393,0.276076078,0.081704482,-9.743169785,-0.24388035,0.265913607,16.74939873,10302814,0.092940268,0.037505853,-4.185228588
43,1515079475,334306741,0.002473543,-0.002130691,-0.145665988,-0.989328504,-0.000367844,0.02730903,0.003905311,0.4478558,-0.021439247,-10.07808685,-0.244860396,0.282843442,16.75118054,10238016,0.097525423,0.037286357,-4.288408202
44,1515079475,344518308,0.002490217,-0.002221938,-0.145666808,-0.989328146,-0.000390172,0.016235642,0.004275468,0.360507905,0.129028603,-9.948950768,-0.24522752,0.293466599,16.75125596,10211567,0.101206773,0.038603942,-4.39000258
45,1515079475,354725221,0.002505895,-0.002294333,-0.145670563,-0.989327312,0.00014018,0.016269302,0.003636945,0.153372437,0.134033471,-9.717148781,-0.245795506,0.301936545,16.75167348,10206913,0.102772232,0.03997201,-4.489184672
46,1515079475,364999316,0.00252424,-0.00238779,-0.145684257,-0.989325047,-0.000150389,0.023133758,0.003772793,0.219388157,0.017930264,-9.728741646,-0.246311032,0.312841409,16.75323962,10274095,0.105026247,0.040156227,-4.589138688
47,1515079475,375252761,0.002543926,-0.002533064,-0.145698473,-0.989322543,0.00093559,0.030496009,0.004607775,0.357756168,0.070259258,-10.04342842,-0.246113146,0.329643202,16.75485756,10253445,0.10869448,0.040876626,-4.692118429
48,1515079475,385545560,0.002567045,-0.002686884,-0.145732209,-0.989317119,0.001535501,0.032368347,0.004786989,0.382859886,0.192293242,-9.805137634,-0.246154356,0.347476046,16.75873469,10292799,0.11263518,0.042855862,-4.79304074
49,1515079475,395799450,0.00257992,-0.002814558,-0.145746142,-0.989314675,0.002469274,0.02193756,0.00430943,0.318347931,0.094155535,-9.747047424,-0.245477015,0.362168693,16.76032551,10253890,0.115899485,0.043821323,-4.892985892
50,1515079475,406039451,0.002582052,-0.002882802,-0.145829707,-0.989302158,0.001897467,0.009366464,0.004595775,0.397141665,0.038437836,-9.948095322,-0.244547812,0.369961625,16.7699946,10240001,0.119966216,0.044214926,-4.994854398
51,1515079475,416322680,0.002580635,-0.002902829,-0.145910859,-0.989290178,0.000979419,0.002965246,0.003332702,0.311415195,-0.096516371,-10.01574421,-0.244022094,0.372228384,16.77939295,10283229,0.12316857,0.043222426,-5.097848589
52,1515079475,426593584,0.00259317,-0.002962839,-0.145997852,-0.989277124,-0.000301872,0.016293932,0.004034414,0.100699514,-0.246136233,-9.732345581,-0.244406461,0.379262576,16.78945674,10270904,0.124202845,0.040694384,-5.197808576
53,1515079475,436816763,0.002621682,-0.003099858,-0.146086708,-0.989263475,-0.001003833,0.031752661,0.005529739,0.145518214,-0.098621249,-9.743247032,-0.245311139,0.395294679,16.79971965,10223179,0.125690503,0.039686162,-5.297415535
54,1515079475,447063273,0.002666095,-0.003272234,-0.146185547,-0.989248216,-0.003032016,0.035642058,0.007043715,0.416898817,0.047603235,-10.08765793,-0.247419191,0.415603846,16.81112924,10246510,0.129962261,0.040173929,-5.400778822
55,1515079475,457337942,0.002710891,-0.003400829,-0.146282375,-0.989233315,-0.005400852,0.023410626,0.007345901,0.444934726,-0.008300962,-10.05901337,-0.250301366,0.430956462,16.82231037,10274669,0.134533818,0.040088639,-5.504131855
56,1515079475,467588347,0.002746294,-0.003462853,-0.146372333,-0.989219725,-0.004617854,0.011653379,0.005183412,0.319803745,-0.017253853,-9.826580048,-0.253235173,0.438603964,16.83270889,10250405,0.137811936,0.03991178,-5.604858281
57,1515079475,477810017,0.002768697,-0.003473875,-0.14646709,-0.989205599,-0.003473745,0.003113423,0.006612317,0.334398776,0.106671743,-9.95000267,-0.255547773,0.440253548,16.84367476,10221670,0.14123005,0.041002144,-5.706563924
58,1515079475,488029933,0.002794978,-0.003496365,-0.146566734,-0.989190698,-0.005682144,0.006283817,0.006722699,0.245457858,0.19774437,-10.1945858,-0.258104956,0.443270093,16.85520395,10219916,0.143738609,0.043023074,-5.810751735
59,1515079475,498226774,0.00282831,-0.003556825,-0.146661654,-0.989176333,-0.004445574,0.016467666,0.006605635,0.022644699,0.230035365,-9.902973175,-0.260824831,0.450708322,16.86617796,10196841,0.143969513,0.045368708,-5.911730778
60,1515079475,508729020,0.002860979,-0.003680314,-0.1467565,-0.98916167,-0.002058578,0.027016576,0.005008685,0.131654352,-0.003697099,-9.822460175,-0.262408245,0.465280438,16.87713427,10502246,0.14535218,0.045329881,-6.014888671
61,1515079475,518952927,0.002888098,-0.003798074,-0.146859795,-0.989145875,-0.000556966,0.022296742,0.007945769,0.459394097,0.068855323,-10.05105019,-0.263452264,0.479112275,16.88907452,10223907,0.150048982,0.046033851,-6.117649673
62,1515079475,529182249,0.002911096,-0.003859339,-0.146960169,-0.989130676,-0.003291121,0.009711757,0.006584161,0.340898991,0.291976005,-10.24257278,-0.264978897,0.486470547,16.9006848,10229322,0.153536148,0.049020568,-6.222424248
63,1515079475,534295849,0.002937973,-0.003880094,-0.14705728,-0.989116073,-0.004705253,0.004736782,0.006688143,0.135011539,0.080203161,-9.878329277,-0.267627843,0.489301954,16.91191996,5113600,0.154226543,0.049430694,-6.272938073
64,1515079475,544507980,0.002951198,-0.00390445,-0.147158489,-0.989100814,-0.001669738,0.007746023,0.007899255,0.218049243,-0.096961945,-9.92902565,-0.26866618,0.492313053,16.92363497,10212131,0.15645329,0.048440506,-6.374334584
65,1515079475,554742419,0.002975486,-0.003956955,-0.147252887,-0.989086509,-0.003763131,0.012435744,0.004314623,0.269939631,0.055240735,-10.07625198,-0.270486292,0.498699553,16.93455382,10234439,0.159215971,0.049005864,-6.47745937
66,1515079475,565034779,0.003019177,-0.004042651,-0.147345975,-0.989072204,-0.00580724,0.019784927,0.005467267,0.094627097,0.024010645,-10.07477951,-0.273944768,0.509175654,16.94530723,10292360,0.160189907,0.04925299,-6.581152627
67,1515079475,575297880,0.003056697,-0.004118614,-0.147440016,-0.98905772,-0.004831588,0.016325533,0.006328773,0.071209848,0.078414075,-9.850358963,-0.276865791,0.518445281,16.95617391,10263101,0.160920741,0.050057762,-6.682247856
68,1515079475,585555084,0.003078681,-0.004150926,-0.147530004,-0.98904413,-0.003499011,0.005594169,0.004060077,0.192762941,0.216570422,-10.00912857,-0.278764179,0.522504302,16.96658544,10257204,0.16289795,0.052279169,-6.78491353
69,1515079475,595748298,0.003112986,-0.004157645,-0.147614166,-0.989031434,-0.005557663,0.002878102,0.003741913,0.123545282,0.048197716,-10.1139431,-0.282494171,0.523869783,16.97631843,10193214,0.164157273,0.052770459,-6.888007116
70,1515079475,605937441,0.00313459,-0.004193422,-0.147700697,-0.989018261,-0.002951785,0.010361766,0.004428459,-0.060070999,0.027714014,-9.917003632,-0.284291497,0.528314967,16.9863281,10189143,0.163545201,0.053052841,-6.989052885
71,1515079475,616150500,0.003165026,-0.004283036,-0.147784203,-0.989005327,-0.002291859,0.020830933,0.003963727,0.032628369,0.220055893,-10.01627922,-0.286179078,0.539010708,16.99597658,10213059,0.163878437,0.055300285,-7.091349735
72,1515079475,626356997,0.00319607,-0.004381711,-0.147871494,-0.988991737,-0.000710432,0.020489141,0.004754258,0.208691657,0.239580467,-10.07239056,-0.287978168,0.550745061,17.00606156,10206497,0.166008447,0.057745562,-7.194153559
73,1515079475,636564333,0.003214275,-0.00444668,-0.147953466,-0.988979101,-0.001234507,0.011060013,0.003757572,0.102200389,0.192732513,-10.11087322,-0.288894481,0.558440664,17.01554106,10207336,0.167051641,0.059712847,-7.297358639
74,1515079475,646847004,0.003214599,-0.004478931,-0.148043513,-0.988965511,0.002758079,0.006904879,0.004169284,-0.048470452,0.283874393,-9.939184189,-0.288333323,0.562127463,17.02597129,10282671,0.166553235,0.062631834,-7.39956
75,1515079475,657108646,0.003210464,-0.004525767,-0.148133054,-0.988951921,0.002529494,0.013371515,0.004720456,0.007636007,0.318501353,-9.953184128,-0.287018896,0.567391275,17.03634345,10261642,0.166631593,0.065900181,-7.501696013
76,1515079475,667376847,0.003210698,-0.004624246,-0.148212433,-0.988939524,0.003208075,0.022637498,0.003644356,0.105116405,0.17224434,-10.01024532,-0.285327529,0.578578618,17.04552871,10268201,0.16771095,0.067668821,-7.604483224
77,1515079475,677628569,0.003202649,-0.004747817,-0.148300573,-0.988925755,0.007226115,0.025174484,0.003781794,0.015492932,0.097252987,-9.991063118,-0.282264221,0.592471095,17.05573271,10251722,0.167869779,0.068665831,-7.706908825
78,1515079475,687890442,0.003191388,-0.00485901,-0.148389488,-0.988911927,0.006673863,0.021095961,0.005367008,0.081395119,0.201998577,-9.863492966,-0.27904433,0.604905886,17.06603096,10261873,0.168705045,0.070738715,-7.808126737
79,1515079475,698161321,0.003182193,-0.004944362,-0.148483381,-0.988897443,0.00479348,0.015122101,0.006440558,0.228851855,0.205747932,-10.0124054,-0.276492821,0.614448271,17.07690811,10270879,0.171055555,0.072851927,-7.910962942
80,1515079475,708366802,0.003162833,-0.004993705,-0.14857927,-0.98888284,0.007745715,0.009276561,0.006013255,0.139084354,0.088848203,-9.895059586,-0.273399303,0.619737067,17.08802652,10205481,0.172474978,0.073758666,-8.011946784
81,1515079475,718616355,0.003143949,-0.005062819,-0.148674428,-0.988868237,0.005883567,0.01654024,0.006035557,-0.053831883,0.085987262,-9.991640091,-0.270022292,0.62727362,17.09905889,10249553,0.171923225,0.074639997,-8.114356629
82,1515079475,728857092,0.003136545,-0.00518768,-0.148767889,-0.988853574,0.005736549,0.028536251,0.006602701,0.042227734,0.136655524,-9.767707825,-0.266995842,0.641322029,17.10988401,10240737,0.172355668,0.07603945,-8.214385156
83,1515079475,739124142,0.003141527,-0.005339419,-0.148864433,-0.988838255,0.002876869,0.030199453,0.006622367,0.208697528,0.061226062,-9.951677322,-0.264909733,0.65862759,17.12105828,10267050,0.174498376,0.076668061,-8.316559525
84,1515079475,744276233,0.003145859,-0.00546748,-0.148961455,-0.988822877,0.003991144,0.025253883,0.006976249,0.18989785,0.059080023,-9.872003555,-0.263150335,0.673238675,17.13228956,5152091,0.175476747,0.076972447,-8.367420985
85,1515079475,754511235,0.003150356,-0.005569795,-0.149058416,-0.988807738,0.001441787,0.01959873,0.006252912,0.131446928,0.128682196,-9.855061531,-0.261846561,0.684935052,17.14351812,10235002,0.176822107,0.078289509,-8.46828756
86,1515079475,764741110,0.003143359,-0.005662131,-0.149154097,-0.988792777,0.004706395,0.01937698,0.00699747,0.195317388,0.250627577,-9.832024574,-0.259409543,0.695303504,17.15460564,10229875,0.178820179,0.080853398,-8.568867942
87,1515079475,774970749,0.003136514,-0.005764152,-0.149246588,-0.988778234,0.005823239,0.020929823,0.005917157,0.205306426,0.261011869,-9.951049805,-0.256824347,0.706770765,17.16532397,10229639,0.18092039,0.083523455,-8.670663589
88,1515079475,785229336,0.003124785,-0.005885441,-0.149339214,-0.98876363,0.007085393,0.0258727,0.004859564,0.117900431,0.253621995,-9.760057449,-0.253353743,0.720337252,17.1760626,10258587,0.182129882,0.086125259,-8.770787988
89,1515079475,795477163,0.00310527,-0.006017392,-0.149430186,-0.988749146,0.008700673,0.024432464,0.005183857,0.13979432,0.16016233,-9.940294266,-0.248817011,0.734977441,17.18661488,10247827,0.18356247,0.087766575,-8.872654404
90,1515079475,805688806,0.003076779,-0.006114141,-0.149522915,-0.988734603,0.011092005,0.01660502,0.006142049,0.246373564,0.106582932,-9.809556961,-0.243862369,0.745474864,17.19737969,10211643,0.186078348,0.088854961,-8.972826097
91,1515079475,815908132,0.003035517,-0.006197556,-0.14961125,-0.988720834,0.011645854,0.01425284,0.005003222,0.200623661,0.164265186,-10.06047153,-0.237690471,0.754240527,17.20764588,10219326,0.188128587,0.090533641,-9.075637336
92,1515079475,826098707,0.003003884,-0.006279673,-0.149701908,-0.988706708,0.010747507,0.018326323,0.005131991,0.027475433,0.156785578,-9.732899666,-0.232628527,0.763023852,17.21817619,10190575,0.188408578,0.092131376,-9.17482118
93,1515079475,836270448,0.002975789,-0.006402581,-0.149792701,-0.988692224,0.009670936,0.027594909,0.006295912,0.082092099,-0.036567591,-9.976140022,-0.227265605,0.776488549,17.22871979,10171741,0.189243597,0.09175942,-9.276295892
94,1515079475,846537495,0.002950451,-0.006550379,-0.149881124,-0.988677979,0.009623697,0.028933648,0.005900615,0.261963129,-0.073301539,-9.976430893,-0.221787181,0.792819217,17.23898995,10267047,0.191933185,0.09100683,-9.378724377
95,1515079475,856748620,0.0029309,-0.006675965,-0.149972424,-0.988663316,0.006379828,0.023357159,0.004871147,0.174946353,-0.180080324,-10.04138374,-0.217340692,0.806732389,17.2495892,10211125,0.193719584,0.089168007,-9.481258202
96,1515079475,867013055,0.002912713,-0.006755311,-0.150062725,-0.98864907,0.004934483,0.014115884,0.004619922,0.057740517,-0.295149058,-9.899580956,-0.213842075,0.815429166,17.26007146,10264435,0.194312258,0.086138469,-9.582871807
97,1515079475,877221508,0.002901206,-0.006826594,-0.150154918,-0.988634706,0.002864341,0.015710101,0.005771304,0.156769514,-0.199653387,-9.963731766,-0.211235913,0.823327168,17.27077071,10208453,0.195912632,0.084100316,-9.684586094
98,1515079475,887451059,0.002911826,-0.006917212,-0.150243878,-0.98862046,1.49925E-05,0.021243563,0.005166213,0.250903845,-0.225875527,-10.03518677,-0.210805044,0.833795495,17.28107612,10229551,0.198479266,0.081789711,-9.787241549
99,1515079475,897650799,0.002930938,-0.007044173,-0.150329724,-0.988606513,3.02682E-05,0.028247546,0.004332315,0.156876892,-0.274143666,-9.891220093,-0.210711088,0.848526811,17.29101752,10199740,0.200079369,0.078993517,-9.888129422
100,1515079475,907865523,0.002962195,-0.007163384,-0.150417194,-0.988592267,-0.003036004,0.022493213,0.004620399,0.188656271,-0.127263889,-9.921221733,-0.212122846,0.862589731,17.30113644,10214724,0.202006441,0.077693552,-9.989471964
101,1515079475,918069324,0.002993552,-0.007239672,-0.150507674,-0.988577843,-0.003292298,0.012992607,0.004887349,0.33161822,-0.158017814,-9.90042305,-0.214280944,0.871792621,17.31160209,10203801,0.205390207,0.076081169,-10.09049391
102,1515079475,928320801,0.003022424,-0.007277381,-0.150596276,-0.988563955,-0.004148799,0.007407481,0.005638234,0.243898392,-0.145728931,-9.921913147,-0.216823199,0.876581939,17.32184995,10251477,0.207890526,0.074587232,-10.19220818
103,1515079475,938570906,0.003058387,-0.007330231,-0.150687486,-0.98854959,-0.005019807,0.015420565,0.004482088,0.07948488,-0.051108822,-9.88924408,-0.219904205,0.88321022,17.33239578,10250105,0.208705254,0.074063362,-10.29357397
104,1515079475,948800191,0.003109864,-0.00743246,-0.150780261,-0.98853451,-0.007161465,0.026440673,0.005585877,0.154789507,-0.137304887,-9.860773087,-0.22388705,0.895701196,17.34311089,10229285,0.21028864,0.072658831,-10.39444262
105,1515079475,959036708,0.003175938,-0.007576523,-0.15087302,-0.988519073,-0.009043628,0.03010474,0.00635526,0.360697746,-0.016397078,-10.05538845,-0.22879819,0.913184494,17.3538133,10236517,0.213980929,0.072490982,-10.49737478
106,1515079475,964169783,0.003233949,-0.007664863,-0.150967494,-0.988503754,-0.009930316,0.016473899,0.00571884,0.293212831,-0.01822477,-9.899913788,-0.23375498,0.924217234,17.36471757,5133075,0.215486012,0.072397433,-10.54819178
107,1515079475,974346811,0.003278962,-0.007699888,-0.151064485,-0.988488495,-0.00822617,0.006551952,0.006586092,0.207237512,-0.031900145,-9.845247269,-0.238157486,0.928986939,17.37592286,10177028,0.217595074,0.072072784,-10.64838714
108,1515079475,984535969,0.003319753,-0.007715332,-0.151162505,-0.988473237,-0.007654603,0.005654013,0.006612736,0.333190739,0.013469711,-9.849365234,-0.242418874,0.931466623,17.38725036,10189158,0.220990007,0.072210029,-10.74874387
109,1515079475,994746344,0.003372884,-0.007776085,-0.151252076,-0.988458931,-0.008608695,0.014486032,0.0048914,0.340976685,0.026527375,-9.781859398,-0.247300626,0.939291406,17.39758986,10210375,0.224471507,0.072480884,-10.84862033
110,1515079476,4961104,0.003437741,-0.007875523,-0.15134649,-0.988443434,-0.010753894,0.023844946,0.00685479,0.284998655,-0.024334434,-9.823683739,-0.252833846,0.951703589,17.40847949,10214760,0.2273827,0.072232313,-10.9489669
111,1515079476,15150667,0.003505059,-0.007989856,-0.151443675,-0.98842746,-0.010396166,0.024854049,0.006169954,0.467985481,0.030605154,-9.775829315,-0.258382327,0.96584775,17.41968954,10189563,0.232151268,0.072544166,-11.04857833
112,1515079476,25389663,0.003574685,-0.008069416,-0.15153186,-0.988412976,-0.011838482,0.0145401,0.004380924,0.711836159,0.151745439,-9.893500328,-0.264802238,0.976091566,17.42984975,10238996,0.239439755,0.074097887,-11.14987784
113,1515079476,35591875,0.003628994,-0.008068809,-0.151618689,-0.988399506,-0.01009221,-0.001694359,0.004893075,0.638092697,0.084314004,-9.698652267,-0.270879107,0.97698971,17.43986643,10202212,0.245949712,0.074958077,-11.24882554
114,1515079476,45798182,0.003665994,-0.008033205,-0.151713207,-0.988385201,-0.007672036,-0.005259942,0.00701129,0.385049552,0.109263346,-9.673957825,-0.275595862,0.973625966,17.45079055,10206307,0.249879646,0.076073252,-11.34756093
115,1515079476,56058289,0.003703848,-0.008022812,-0.151809573,-0.988370299,-0.006931301,0.002950859,0.006360773,0.399794221,0.339541048,-9.603146553,-0.279969664,0.97313412,17.46192734,10260107,0.253981578,0.079556979,-11.44609024
116,1515079476,66302297,0.00375042,-0.008067735,-0.151901394,-0.988355637,-0.006450628,0.012809551,0.005172537,0.54863745,0.281077683,-9.588880539,-0.284372825,0.979058903,17.47253023,10244008,0.259601824,0.082436341,-11.54431881
117,1515079476,76512947,0.003788298,-0.008130487,-0.15199022,-0.988341331,-0.003183014,0.012180695,0.005259855,0.581288397,0.282647431,-9.670982361,-0.287482622,0.986851777,17.48279442,10210650,0.265537156,0.085322355,-11.64306582
118,1515079476,86758826,0.003809527,-0.008155705,-0.152076527,-0.988327801,-0.001501512,0.000225872,0.004344966,0.584628701,0.417480648,-9.705039024,-0.289361829,0.99010317,17.4927825,10245879,0.271527191,0.089599811,-11.74250248
119,1515079476,96975975,0.003805442,-0.008098687,-0.152162105,-0.988315105,0.001671383,-0.016280748,0.004005757,0.647516012,0.480917633,-9.715210915,-0.28980735,0.983598989,17.50270884,10217149,0.278142959,0.094513419,-11.84176424
120,1515079476,107224309,0.003769581,-0.007967086,-0.152247652,-0.988303125,0.004756482,-0.029014139,0.004646287,0.465507448,0.609520137,-9.799947739,-0.287955789,0.968093265,17.51266142,10248334,0.282913635,0.100759985,-11.94219737
121,1515079476,117459823,0.003717077,-0.007860708,-0.152335018,-0.988290668,0.009732101,-0.018018601,0.005070195,0.174823016,0.807681441,-9.653103828,-0.283779815,0.955154052,17.52283955,10235514,0.284703038,0.109027019,-12.04100185
122,1515079476,127680311,0.003661276,-0.007861574,-0.152419314,-0.988277912,0.012891758,0.004407277,0.004353804,0.225392818,0.662909389,-9.834058762,-0.27736285,0.954301808,17.53266637,10220488,0.287006663,0.115802277,-12.14151073
123,1515079476,137993372,0.003596277,-0.007916012,-0.152507395,-0.988264143,0.016513009,0.009645455,0.005361905,0.493647248,0.615190148,-9.729854584,-0.268964648,0.959356035,17.54294123,10313061,0.292097677,0.12214677,-12.24185532
124,1515079476,148231156,0.003501617,-0.007921503,-0.152595818,-0.988250732,0.019727739,-0.006493692,0.00545286,0.454947561,0.743897021,-10.0416069,-0.258061347,0.958346758,17.55328164,10237784,0.296755332,0.129762627,-12.34465912
125,1515079476,158507451,0.003376178,-0.007801195,-0.15268378,-0.988238573,0.022676252,-0.032462999,0.004002791,0.238676757,0.493031323,-9.963843346,-0.245873434,0.942550018,17.56359319,10276295,0.299208044,0.134829163,-12.44705051
126,1515079476,168724182,0.003234036,-0.007620315,-0.152772769,-0.988226771,0.024018921,-0.03814514,0.003885502,0.102505147,0.277136087,-10.08618546,-0.232855924,0.919599095,17.57403387,10216731,0.300255312,0.137660587,-12.55009836
127,1515079476,178976432,0.003095013,-0.007511503,-0.152865201,-0.988213718,0.024895217,-0.020630889,0.00719035,0.05004761,0.455027848,-10.00636768,-0.218930596,0.904862896,17.58486893,10252250,0.300768413,0.142325647,-12.65268614
128,1515079476,184137455,0.00298174,-0.007509203,-0.152965903,-0.988198459,0.0235199,0.001604353,0.007985717,0.032146439,0.34268105,-9.998695374,-0.206050083,0.902639195,17.59664486,5161023,0.300934321,0.144094231,-12.70428964
129,1515079476,194352690,0.002865939,-0.007558754,-0.153074622,-0.988181591,0.025534745,0.004908147,0.009416153,0.134424001,0.190243721,-9.966581345,-0.191966894,0.906242016,17.60935757,10215235,0.302307494,0.146037616,-12.80610061
130,1515079476,204574813,0.00274106,-0.007542294,-0.153184146,-0.988165081,0.023130644,-0.01160077,0.009778868,0.301774204,0.135288447,-10.14908314,-0.178012811,0.902207229,17.62216614,10222123,0.305392267,0.147420551,-12.90984578
131,1515079476,214849355,0.002615707,-0.00740416,-0.153295904,-0.988149166,0.019976541,-0.035957776,0.010126121,0.314266711,-0.006963584,-10.097785,-0.166141311,0.884383097,17.63522177,10274542,0.308621213,0.147349003,-13.0135959
132,1515079476,225101804,0.002481974,-0.007228566,-0.15341264,-0.988132715,0.021033477,-0.035486449,0.011069007,0.008088454,-0.106627069,-10.08458519,-0.153978966,0.862167753,17.6488544,10252449,0.30870414,0.146255815,-13.11698759
133,1515079476,235297840,0.002361503,-0.007132859,-0.153532237,-0.988115132,0.020703135,-0.012663045,0.010996249,-0.211940587,0.023395941,-10.04098892,-0.141915945,0.849229394,17.66281327,10196036,0.306543186,0.146494361,-13.21936588
134,1515079476,245500738,0.002259832,-0.007153785,-0.153654367,-0.988096178,0.02000609,0.008805458,0.012458031,-0.065136962,0.14251186,-10.165308,-0.129929255,0.849826176,17.67706248,10202898,0.3058786,0.147948395,-13.32308148
135,1515079476,255746298,0.002157395,-0.007199694,-0.153778821,-0.988076746,0.021747202,0.006785416,0.012680041,0.111120924,0.063893631,-9.938941956,-0.117413503,0.853235863,17.69158762,10245560,0.307017096,0.148603021,-13.42491151
136,1515079476,266004125,0.002045121,-0.007212514,-0.153900787,-0.988057911,0.023311781,-0.003991336,0.012522058,0.138380408,0.068899669,-9.998268127,-0.104368595,0.852721859,17.70582788,10257827,0.308436579,0.149309781,-13.52747201
137,1515079476,276254365,0.001924418,-0.007164339,-0.154025152,-0.988039136,0.022550475,-0.015040151,0.011100122,0.230359942,-0.093136795,-9.893883705,-0.09144393,0.845149827,17.7203434,10250240,0.310797823,0.148355107,-13.62888669
138,1515079476,286494806,0.001812935,-0.00710107,-0.154153019,-0.988019884,0.019024186,-0.016159706,0.012379955,0.312603861,-0.390834093,-9.904325485,-0.079828966,0.836028712,17.73525398,10240441,0.313999025,0.144352793,-13.73031135
139,1515079476,296736142,0.00171037,-0.007065005,-0.15427354,-0.988001466,0.020163635,-0.00827356,0.011791256,0.169815585,-0.421328187,-9.914347649,-0.068751305,0.830141741,17.74930796,10241336,0.315738163,0.14003783,-13.83184752
140,1515079476,307004426,0.001618875,-0.007039162,-0.154393971,-0.987982988,0.018013798,-0.005687114,0.011190209,-0.04244592,-0.16213955,-9.954597473,-0.058747655,0.825605425,17.76334483,10268284,0.315302316,0.138372935,-13.93406415
141,1515079476,317237507,0.001542135,-0.007036018,-0.154503763,-0.987965941,0.013735565,-0.000632277,0.008800774,0.106952906,-0.167985871,-9.99789238,-0.050022704,0.823897234,17.77613974,10233081,0.316396774,0.136653922,-14.0363734
142,1515079476,327428823,0.001479627,-0.007061163,-0.154618204,-0.987948,0.013663388,0.003968816,0.010606926,0.30458653,-0.485871404,-9.820894241,-0.042404455,0.825642374,17.78946996,10191316,0.319500912,0.131702253,-14.13646123
143,1515079476,337710166,0.001419429,-0.007062878,-0.154724628,-0.987931371,0.010670933,-0.001610802,0.00822952,0.180589065,-0.486467361,-9.853382111,-0.035469427,0.824773705,17.80186228,10281343,0.32135761,0.126700715,-14.23776723
144,1515079476,347931867,0.00136895,-0.007040973,-0.154828563,-0.987915397,0.008035105,-0.004408962,0.007842708,0.004076448,-0.357556969,-9.889170647,-0.030056173,0.821401862,17.81395521,10221701,0.321399278,0.123045875,-14.33885138
145,1515079476,358187926,0.001344485,-0.007026757,-0.154930159,-0.987899542,0.002911886,-0.000717973,0.007565141,0.112964801,-0.488657057,-9.86887455,-0.02745433,0.819361177,17.82575547,10256059,0.322557852,0.118034179,-14.44006714
146,1515079476,368413560,0.001333112,-0.007029601,-0.155031651,-0.987883627,0.002497699,0.003228417,0.007939503,0.257617086,-0.432103723,-9.839046478,-0.026031962,0.819483936,17.83753856,10225634,0.32519215,0.113615645,-14.54067763
147,1515079476,378638796,0.001338993,-0.00705168,-0.155134261,-0.987867355,-0.003219684,0.007243296,0.00787093,0.095714092,-0.328369766,-9.889277458,-0.02622017,0.822090685,17.84944207,10225236,0.326170849,0.110257986,-14.64179782
148,1515079476,388850146,0.001364223,-0.007082881,-0.155232847,-0.98785162,-0.004799447,0.006325025,0.00684917,0.096322194,-0.291226,-9.933520317,-0.028439295,0.826074201,17.86086587,10211350,0.327154429,0.107284176,-14.74323248
149,1515079476,394022741,0.001388371,-0.007073392,-0.155324653,-0.987837195,-0.005852114,-0.003222544,0.005682035,0.246192843,-0.287903816,-9.77973175,-0.031265262,0.825432486,17.87149424,5172595,0.328427885,0.105794966,-14.79381907
150,1515079476,404285535,0.001421341,-0.007036698,-0.155414164,-0.987823367,-0.007838289,-0.005472796,0.004378513,0.241750523,-0.289079159,-9.744110107,-0.035576422,0.821868618,17.88184466,10262794,0.33090892,0.102828206,-14.89382086
151,1515079476,414539565,0.0014599,-0.007016584,-0.155502453,-0.987809539,-0.008670622,0.001603927,0.005413726,0.061360639,-0.335434169,-9.86937809,-0.040226589,0.820282017,17.89205197,10254030,0.331538114,0.099388654,-14.99502176
152,1515079476,424800035,0.001513304,-0.007046994,-0.15559873,-0.987794101,-0.009765074,0.010959337,0.007229146,0.089114755,-0.113997884,-9.910737991,-0.045649911,0.824680565,17.90318573,10260470,0.332452473,0.098218982,-15.09671059
153,1515079476,435073929,0.001575844,-0.007090279,-0.155687809,-0.987779677,-0.010899179,0.012193826,0.00409444,0.299620718,0.017321138,-9.832460403,-0.051882925,0.830700278,17.91347967,10273894,0.335530745,0.098396938,-15.19772825
154,1515079476,445321887,0.001625017,-0.007104111,-0.155773774,-0.987765908,-0.008851027,0.002763413,0.00483039,0.2753537,0.031119822,-9.906191826,-0.057130253,0.83314823,17.92341577,10247958,0.338352558,0.098715852,-15.29924648
155,1515079476,455501051,0.001669692,-0.007077155,-0.155862853,-0.987751961,-0.009065071,-0.003956784,0.005076482,0.134864315,0.054112695,-9.952734947,-0.062593703,0.830900011,17.93370913,10179164,0.339725364,0.099266674,-15.40055701
156,1515079476,465775155,0.001707318,-0.007048767,-0.15595834,-0.987737,-0.00745673,-0.003263045,0.006138826,0.177652985,0.156832427,-9.964808464,-0.067279935,0.828365222,17.94475142,10274104,0.341550589,0.100877987,-15.50293648
157,1515079476,476090069,0.00174876,-0.007044824,-0.156055734,-0.987721622,-0.007057655,0.004701042,0.006031068,0.2576437,0.25053522,-9.779996872,-0.071959958,0.828666684,17.95601821,10314914,0.344208162,0.103462236,-15.60381631
158,1515079476,486333441,0.001775037,-0.007071593,-0.156149954,-0.987706482,-0.002723422,0.006521103,0.006768811,0.196280599,0.237364501,-10.00014687,-0.074376275,0.832173686,17.96693366,10243372,0.346218737,0.105893649,-15.70625154
159,1515079476,496603093,0.001799175,-0.007074146,-0.156244442,-0.987691462,-0.004122292,-0.000386993,0.005787192,0.140099511,0.197770774,-10.00640488,-0.07698314,0.832901898,17.97787749,10269652,0.34765751,0.107924686,-15.80901383
160,1515079476,506851394,0.00181122,-0.007052793,-0.156342238,-0.987676144,-0.002554595,-0.005204393,0.007285659,0.201642767,0.142452896,-10.03431797,-0.078646692,0.83070856,17.98921139,10248301,0.349724006,0.109384586,-15.91184854
161,1515079476,517368405,0.001829002,-0.007034614,-0.156438783,-0.987660944,-0.002473704,0.000614264,0.006761409,0.308423758,0.198468894,-9.944377899,-0.080904083,0.828977446,18.00039568,10517011,0.352967702,0.111471886,-16.01643367
162,1515079476,527590932,0.001853604,-0.007038971,-0.156542003,-0.987644553,-0.004851722,0.005526852,0.008218577,0.2379812,0.204114258,-10.0389719,-0.083523966,0.829920367,18.01235417,10222527,0.355400471,0.113558449,-16.11905734
163,1515079476,537842892,0.001877575,-0.007066786,-0.156644002,-0.987628102,-0.003659746,0.008533229,0.008876028,0.178937823,0.255011976,-10.04360867,-0.085652109,0.833507338,18.02417434,10251960,0.357234935,0.116172822,-16.22202401
164,1515079476,548105432,0.001901113,-0.00707153,-0.156751186,-0.987610996,-0.004958733,-3.40666E-06,0.008372043,0.274931341,0.30144763,-9.915872574,-0.088140518,0.834476349,18.0365929,10262540,0.360056429,0.11926644,-16.32378605
165,1515079476,558333862,0.001916684,-0.007030063,-0.156862229,-0.98759371,-0.005202583,-0.008426487,0.008767406,0.265471309,0.151986718,-9.918301582,-0.09055446,0.830073124,18.04945976,10228430,0.362771783,0.120821026,-16.4252347
166,1515079476,568535994,0.001924351,-0.00699088,-0.156978771,-0.987575352,-0.00172689,-0.003931323,0.010907181,0.116650805,0.121067725,-10.10076714,-0.0920291,0.82578714,18.06296863,10202132,0.36396187,0.122056175,-16.52828406
167,1515079476,573671041,0.001945863,-0.006983993,-0.157099083,-0.987556279,-0.004021366,0.001516423,0.011872872,0.101912439,0.188387886,-10.06265068,-0.094487156,0.825406228,18.07691232,5135047,0.364485195,0.123023555,-16.57995625
168,1515079476,583909269,0.001979708,-0.006996925,-0.157218248,-0.987537146,-0.004832749,0.00487275,0.010983003,0.20861055,0.02716013,-9.865667343,-0.097985022,0.827490982,18.09071548,10238228,0.366620998,0.123301627,-16.6809632
169,1515079476,594141580,0.002012654,-0.006994823,-0.157342494,-0.987517297,-0.005530959,-0.00170629,0.012143125,0.241255179,-0.034877103,-9.953226089,-0.101647342,0.827859331,18.10510684,10232311,0.369089596,0.122944753,-16.7828077
170,1515079476,604400025,0.002040251,-0.006943983,-0.157462403,-0.987498462,-0.006801434,-0.009625001,0.011632253,0.133407101,0.057544179,-10.03366661,-0.105587391,0.822616415,18.1189918,10258445,0.370458145,0.123535067,-16.88573752
171,1515079476,614640324,0.002073751,-0.006881885,-0.157584697,-0.987479329,-0.008413004,-0.008376625,0.013325465,0.109879784,0.036195353,-10.12844849,-0.110398065,0.816207228,18.13314841,10240299,0.371583347,0.123905718,-16.98945586
172,1515079476,624875880,0.002108422,-0.006846881,-0.157706767,-0.987460017,-0.006469491,-0.001092388,0.01140396,0.126077905,0.085420385,-9.913911819,-0.114853337,0.812886296,18.14728277,10235556,0.372873825,0.124780044,-17.09093026
173,1515079476,635137210,0.002149769,-0.006841023,-0.15783821,-0.987438977,-0.007908414,0.002763525,0.013923153,0.13677156,0.181111693,-10.05871391,-0.119530055,0.8129866,18.16250426,10261330,0.374277283,0.12663849,-17.19414604
174,1515079476,645349749,0.002186398,-0.006845776,-0.157969847,-0.987417817,-0.007057852,0.003274762,0.01333622,0.105234146,0.188482136,-10.04409218,-0.123480686,0.814203435,18.17775357,10212539,0.37535199,0.128563372,-17.29672173
175,1515079476,655601337,0.002222873,-0.006847338,-0.158096567,-0.987397373,-0.006889683,0.001787005,0.013749994,0.217748642,0.095233724,-9.901405334,-0.127475276,0.815056736,18.19243085,10251588,0.37758426,0.129539669,-17.39822685
176,1515079476,665864280,0.002247642,-0.006809037,-0.158226833,-0.987376809,-0.006398918,-0.007599683,0.013060474,0.256944835,-0.039294228,-9.932439804,-0.130865013,0.811188968,18.20752705,10262943,0.38022127,0.129136394,-17.50016292
177,1515079476,676086011,0.002266305,-0.006759931,-0.158356503,-0.987356305,-0.003943192,-0.007494336,0.013423949,0.168136358,0.00370976,-9.923929214,-0.133761329,0.805988542,18.2225563,10221731,0.381939915,0.129174314,-17.60160265
178,1515079476,686350587,0.002288298,-0.006738499,-0.158489436,-0.987335026,-0.005190602,-0.001147801,0.013883258,0.19662565,0.097434655,-9.951527596,-0.136530553,0.803980924,18.23796496,10264576,0.383958194,0.13017444,-17.70375086
179,1515079476,696608847,0.002307293,-0.006737436,-0.158619046,-0.987314224,-0.002698988,-0.000230913,0.012761542,0.293258965,0.149249017,-9.869213104,-0.138593614,0.804223855,18.25299463,10258260,0.38696652,0.131705475,-17.80499182
180,1515079476,706894800,0.00232014,-0.006704831,-0.158743754,-0.987294376,-0.003221397,-0.008676277,0.012317378,0.283195913,0.022056818,-9.852093697,-0.140538804,0.80078618,18.26745598,10285953,0.38987946,0.13193235,-17.90632999
181,1515079476,717198769,0.0023232,-0.006636291,-0.158869237,-0.987274647,-0.002152007,-0.012904196,0.012227949,0.08513239,0.01687325,-10.03965759,-0.142031012,0.793105166,18.28201121,10303969,0.390756662,0.132106212,-18.00977831
182,1515079476,727419730,0.002323959,-0.006555295,-0.15899609,-0.987254798,-0.00290075,-0.012064723,0.012090097,0.069000192,0.088041306,-9.811609268,-0.143490573,0.783973605,18.29672717,10220961,0.39146191,0.133006078,-18.11006239
183,1515079476,737636524,0.002328804,-0.006535067,-0.159120336,-0.987234831,0.000172441,0.00111637,0.012386129,0.204591721,0.146336243,-9.84793663,-0.144308901,0.78179143,18.31114231,10216794,0.393552181,0.134501166,-18.21067673
184,1515079476,747818514,0.002351894,-0.006567627,-0.159246877,-0.987214208,-0.002775688,0.009872785,0.013009146,0.243168369,0.094415829,-9.829999924,-0.14622692,0.785914893,18.32581793,10181990,0.396028119,0.135462507,-18.31076569
185,1515079476,758070853,0.002376648,-0.006596479,-0.159365609,-0.987194777,-0.003540225,0.004768249,0.010584527,0.261503935,-0.041295037,-9.905808449,-0.148406091,0.789648532,18.33958449,10252339,0.398709146,0.135039136,-18.41232339
186,1515079476,768342229,0.002383231,-0.00653231,-0.159486696,-0.987175643,-0.003793263,-0.017035052,0.011246397,0.314415812,-0.017755741,-9.964852333,-0.150226704,0.782527756,18.35362962,10271376,0.401938629,0.13485676,-18.51467614
187,1515079476,778545622,0.002381716,-0.006387989,-0.159605771,-0.987157345,-0.004194819,-0.031293571,0.01121541,0.182179868,0.213212386,-9.823419571,-0.152600329,0.766191843,18.3674402,10203393,0.403797482,0.13703225,-18.61490835
188,1515079476,783657547,0.002396378,-0.006257512,-0.15972437,-0.987138927,-0.005475047,-0.020890076,0.010096802,-0.076377273,0.306954622,-10.017519,-0.156555058,0.751718518,18.38118558,5111925,0.403407047,0.138601379,-18.66611716
189,1515079476,793853681,0.002415844,-0.00622794,-0.159843445,-0.987119794,-0.003438134,0.002875931,0.011898661,-0.027034514,0.227550045,-9.936091423,-0.15920806,0.748748806,18.3949927,10196134,0.4031314,0.14092151,-18.76742687
190,1515079476,804029483,0.002444298,-0.00627356,-0.159970269,-0.987098932,-0.002309946,0.012852879,0.012679679,0.200401023,0.23581709,-9.93142128,-0.161494399,0.754451268,18.40969975,10175802,0.405170641,0.143321138,-18.86848705
191,1515079476,814203661,0.002464066,-0.006288136,-0.160096109,-0.987078369,-0.001480196,5.13321E-05,0.012947449,0.30489859,0.219493344,-9.886758804,-0.163367059,0.75648335,18.42429564,10174178,0.408272733,0.145554302,-18.9690767
192,1515079476,824419491,0.002458105,-0.006210241,-0.160223603,-0.987058163,-0.000885508,-0.020434629,0.012977625,0.264673024,0.233826861,-9.906113625,-0.164025114,0.747583888,18.43909542,10215830,0.410976588,0.147943037,-19.07027587
193,1515079476,834639334,0.002450334,-0.006070176,-0.160350963,-0.987038374,-0.001589633,-0.027661949,0.012390172,0.186246783,0.250810087,-9.855863571,-0.1656232,0.731619403,18.45387767,10219843,0.412880001,0.150506277,-19.17100125
194,1515079476,844882838,0.002442952,-0.005951817,-0.160487294,-0.987016976,-0.000988271,-0.019121846,0.015122421,0.095250249,0.216373637,-9.945239067,-0.166863738,0.718119056,18.46970385,10243504,0.413855697,0.152722701,-19.27287534
195,1515079476,855120408,0.002436425,-0.005895354,-0.160628796,-0.986994326,0.001124812,-0.005715935,0.015929498,-0.006402531,0.428667724,-9.995762825,-0.16706168,0.711636548,18.48613411,10237570,0.413790151,0.157111217,-19.37520766
196,1515079476,865360934,0.00242547,-0.005875466,-0.160783425,-0.986969292,0.002266624,-0.004509075,0.019404612,-0.048695832,0.573693573,-10.15625286,-0.166077548,0.709211553,18.50409396,10240526,0.41329148,0.162986141,-19.47921304
197,1515079476,875627605,0.002400245,-0.00582567,-0.160935134,-0.986944914,0.006375756,-0.011451779,0.01732824,0.047758292,0.390389383,-9.951936722,-0.164033774,0.703139845,18.52172285,10266671,0.413781799,0.166994141,-19.5813863
198,1515079476,885881783,0.002347614,-0.005739302,-0.161094487,-0.986919582,0.009779712,-0.01931891,0.020084826,0.131417319,0.377195656,-10.06326771,-0.159561884,0.692426912,18.54025641,10254178,0.415129375,0.170861972,-19.68457683
199,1515079476,896098297,0.002286531,-0.005657563,-0.16125612,-0.986893773,0.011164103,-0.0154736,0.019478308,0.085588932,0.50722909,-9.914954185,-0.154050413,0.682080059,18.55905928,10216514,0.416003796,0.176044085,-19.7858731
200,1515079476,906324115,0.002226696,-0.005603328,-0.161425203,-0.986866593,0.011669409,-0.009029273,0.021578625,0.040467869,0.532422185,-9.946882248,-0.148169755,0.674866152,18.57872878,10225818,0.416417613,0.181488537,-19.88758811
201,1515079476,916568316,0.002161629,-0.005564545,-0.161597922,-0.986838698,0.013276989,-0.007849203,0.023100324,0.088645741,0.467639983,-9.848791122,-0.141411165,0.669301352,18.59882473,10244201,0.417325718,0.186279135,-19.98848111
202,1515079476,926791174,0.002076455,-0.005527232,-0.161773294,-0.986810327,0.016513685,-0.009554246,0.023261413,0.187193766,0.579310656,-9.911093712,-0.13235175,0.663527961,18.61924093,10222858,0.419239373,0.192201346,-20.08980081
203,1515079476,937009523,0.001979449,-0.005491891,-0.161958039,-0.986780405,0.019561332,-0.008703153,0.02368607,0.226919979,0.602973759,-9.972837448,-0.12191354,0.657756019,18.64075336,10218349,0.42155812,0.198362742,-20.19170674
204,1515079476,947254711,0.001865005,-0.005446392,-0.162149742,-0.986749351,0.02220976,-0.010522465,0.026115643,0.219825417,0.51395309,-9.780976295,-0.109689714,0.650508304,18.66308307,10245188,0.423810273,0.203628288,-20.29191468
205,1515079476,957486081,0.001747788,-0.005390251,-0.162344635,-0.98671782,0.02187949,-0.014492054,0.026662374,0.206886366,0.370578885,-9.884005547,-0.097351141,0.642001219,18.68578376,10231370,0.425927004,0.207419818,-20.3930416
206,1515079476,967699108,0.001623433,-0.005305318,-0.162544087,-0.986685693,0.022917338,-0.022524212,0.027559506,0.112234801,0.187739819,-9.903899193,-0.084742135,0.630101367,18.70901488,10213027,0.427073261,0.20933721,-20.49419039
207,1515079476,977913908,0.001494776,-0.005223245,-0.162746623,-0.98665297,0.024680048,-0.017937409,0.029035047,0.062868476,0.215405047,-9.786685944,-0.071596409,0.618439775,18.73260545,10214800,0.42771545,0.211537529,-20.59415943
208,1515079476,988271739,0.001386547,-0.005186217,-0.162956774,-0.986618638,0.019980848,-0.008792762,0.030155908,0.177213073,0.299211323,-9.74801445,-0.059919185,0.612247472,18.75707287,10357831,0.429550993,0.21463671,-20.69512772
209,1515079476,993446681,0.00128826,-0.00516973,-0.163173273,-0.986583114,0.017570874,-0.005191335,0.03123082,0.269339293,0.047397789,-9.689574242,-0.048980764,0.608558862,18.78227536,5174942,0.430944808,0.21488199,-20.7452707
210,1515079477,3678689,0.001190737,-0.005102728,-0.163393959,-0.986546993,0.016018659,-0.018808473,0.032509223,0.166992918,-0.157622784,-9.812203407,-0.039073648,0.599169013,18.80795434,10232008,0.432653481,0.213269193,-20.84566925
211,1515079477,13916481,0.001100955,-0.004959394,-0.163620517,-0.986510336,0.010464194,-0.031779617,0.032896869,0.008465904,-0.311367631,-9.947532654,-0.031473649,0.581290845,18.83430042,10237792,0.432740153,0.210081476,-20.94751002
212,1515079477,24162435,0.001041339,-0.004827918,-0.163852498,-0.986472547,0.006095828,-0.022263126,0.034618024,0.025642421,-0.576069474,-9.85968399,-0.027066249,0.565316271,18.86126017,10245954,0.433002884,0.204179094,-21.04853188
213,1515079477,34407100,0.001016591,-0.004771296,-0.164090887,-0.986433208,0.000353931,-0.006474829,0.035740059,0.029441155,-0.480857879,-9.886459351,-0.025196769,0.558456886,18.88895748,10244665,0.433304499,0.199252867,-21.14981535
214,1515079477,44607886,0.001044441,-0.004777696,-0.164332524,-0.986392915,-0.006986176,0.005824143,0.036498778,0.025424495,-0.265895009,-9.84379673,-0.02808752,0.559710867,18.91701509,10200786,0.433563849,0.196540529,-21.25022981
215,1515079477,54801366,0.001082616,-0.004754597,-0.164573431,-0.986352742,-0.008772683,-0.006440674,0.035443418,0.100305773,-0.334405512,-9.756412506,-0.032701464,0.557826757,18.94497766,10193480,0.434586314,0.193131773,-21.34968161
216,1515079477,65021065,0.001112894,-0.004657806,-0.164812684,-0.986313224,-0.00827007,-0.021503955,0.034792773,0.154223159,-0.284323364,-9.845519066,-0.037816529,0.547466589,18.97274443,10219699,0.436162428,0.190226073,-21.45029985
217,1515079477,75318615,0.001149704,-0.004489108,-0.165053278,-0.986273825,-0.014359349,-0.031844459,0.035958119,0.050295886,-0.23052232,-9.8888731,-0.045034238,0.529105641,19.00065806,10297550,0.436680353,0.187852258,-21.55213101
218,1515079477,85628741,0.001199939,-0.004367273,-0.165295601,-0.986233711,-0.014001037,-0.015782239,0.03677398,-0.071429372,-0.290463924,-9.905332565,-0.052889475,0.516298883,19.02877333,10310126,0.435943907,0.184857539,-21.65425624
219,1515079477,95834381,0.001268767,-0.004336827,-0.16554004,-0.986192763,-0.016352996,0.001135814,0.037124936,-0.064457722,-0.164943397,-9.862484932,-0.061117606,0.51417683,19.05713871,10205640,0.435286074,0.183174186,-21.75490921
220,1515079477,106032595,0.001350437,-0.004324228,-0.165785164,-0.986151516,-0.014710572,-0.000465806,0.036874115,0.065380327,0.09083733,-10.06963539,-0.070458623,0.514319718,19.08558045,10198214,0.435952837,0.184100564,-21.85760151
221,1515079477,116304920,0.001412632,-0.004234006,-0.166027829,-0.986110985,-0.015207975,-0.017739283,0.037337184,-0.067170441,0.19732289,-10.21575356,-0.079076916,0.505325047,19.1137405,10272325,0.43526284,0.186127529,-21.96254105
222,1515079477,126549802,0.001442082,-0.004060399,-0.166274801,-0.986070096,-0.009040375,-0.03080737,0.037272956,-0.357502699,0.262031734,-10.09488869,-0.085586081,0.486288845,19.14241369,10244882,0.431600267,0.188812013,-22.06596199
223,1515079477,136799513,0.001450621,-0.003907067,-0.166524515,-0.986028552,-0.005174425,-0.02269779,0.037140675,-0.556407332,0.254410148,-10.07753944,-0.089353653,0.469148051,19.17141922,10249711,0.425897253,0.191419644,-22.16925386
224,1515079477,147016947,0.001467393,-0.003898856,-0.166777,-0.985985875,-0.002261084,0.009485476,0.037965156,-0.557469904,0.468695343,-10.0308485,-0.091285455,0.468563669,19.20075471,10217434,0.420201341,0.196208508,-22.27174339
225,1515079477,157262964,0.001498564,-0.004008135,-0.167025089,-0.985943437,-0.00247067,0.02766571,0.037736289,-0.368591696,0.500230312,-10.12005615,-0.092597855,0.481529935,19.22958256,10246017,0.416424744,0.201333876,-22.37543366
226,1515079477,167610309,0.001516005,-0.004127158,-0.167268038,-0.985901713,0.001544179,0.021620914,0.036617931,-0.092857569,0.485471725,-10.12375259,-0.092168348,0.4953341,19.25782022,10347345,0.415463915,0.206357219,-22.48018762
227,1515079477,177876065,0.001493716,-0.004121709,-0.167513266,-0.985860109,0.005846334,-0.008132354,0.036382511,0.103570506,0.712682962,-10.1493969,-0.089631664,0.494313491,19.28633401,10265756,0.416527145,0.213673449,-22.58437885
228,1515079477,188207495,0.001443694,-0.004021963,-0.167764664,-0.985817909,0.006934424,-0.022817699,0.038383972,-0.021810267,0.873729408,-10.19219017,-0.085772082,0.482106539,19.31557344,10331430,0.416301813,0.222700323,-22.68967875
229,1515079477,193364963,0.001387589,-0.003894553,-0.168024778,-0.985774159,0.007851486,-0.023735873,0.040758889,-0.370469093,0.43643719,-10.36741066,-0.081760145,0.466656289,19.34582563,5157468,0.414391131,0.224951234,-22.74314834
230,1515079477,203539076,0.001322802,-0.003867314,-0.168293759,-0.985728443,0.012179378,0.001183139,0.042463806,-0.600402117,0.315794587,-10.2908802,-0.074839783,0.462352273,19.37712081,10174113,0.408282572,0.228164163,-22.84784892
231,1515079477,213691455,0.001275115,-0.003969132,-0.168570161,-0.985680878,0.0115086,0.02489724,0.044521216,-0.461826563,0.762779176,-10.2983799,-0.067356829,0.472952617,19.40928415,10152379,0.403593934,0.235908187,-22.95240197
232,1515079477,223881951,0.001231352,-0.004117215,-0.16885443,-0.985631645,0.014366269,0.029744497,0.045599777,-0.149757564,0.634531915,-10.06959534,-0.059412147,0.488850856,19.44236786,10190496,0.40206783,0.242374382,-23.05501615
233,1515079477,239241978,0.001162324,-0.004198165,-0.169147015,-0.985581219,0.01738083,0.011160986,0.047255225,0.016145026,0.468350947,-10.1280489,-0.049901632,0.496673119,19.47642736,15360027,0.402315818,0.249568265,-23.21058325
234,1515079477,244391518,0.001080405,-0.004168508,-0.169450343,-0.985529363,0.015471448,-0.011981894,0.049096126,-0.099256381,0.308599144,-10.12672424,-0.041072991,0.491748412,19.51173197,5149540,0.401804693,0.251157409,-23.26273122
235,1515079477,254656500,0.00099897,-0.004054085,-0.169763312,-0.985476017,0.010780257,-0.025607903,0.051978983,-0.412046939,-0.044816028,-10.23083687,-0.033946195,0.477255569,19.54814623,10264982,0.397575039,0.250697373,-23.36775058
236,1515079477,264990672,0.000943557,-0.003995067,-0.170090303,-0.985419989,0.010159429,-0.006892365,0.052731287,-0.6215716,0.013805863,-10.28520107,-0.028680739,0.469522262,19.5861892,10334172,0.391151611,0.250840045,-23.47403961
237,1515079477,275291927,0.000942834,-0.004091542,-0.170427561,-0.985361338,0.001167857,0.028133202,0.05618009,-0.514631629,0.055241123,-10.33803558,-0.026554178,0.480411485,19.62542331,10301255,0.385850259,0.251409098,-23.58053436
238,1515079477,285557167,0.000980603,-0.004294443,-0.170770973,-0.985300958,-0.000595961,0.044284493,0.057326354,-0.13765648,-0.116130993,-10.22255039,-0.026680535,0.504069242,19.66537246,10265240,0.384437182,0.250216985,-23.68547129
239,1515079477,295799546,0.001013011,-0.004424399,-0.171120167,-0.985239685,-0.002013648,0.020704076,0.058133315,0.137779966,-0.010548186,-10.15069294,-0.027612481,0.51938651,19.70598798,10242379,0.385848377,0.250108947,-23.78943853
240,1515079477,306031235,0.001014552,-0.004398087,-0.171474814,-0.985178232,-0.001992885,-0.01154099,0.059853207,0.03464232,0.438193887,-10.12756348,-0.028116579,0.516456224,19.74723561,10231689,0.386202826,0.25459241,-23.89306061
241,1515079477,316209942,0.00100844,-0.004291852,-0.171832263,-0.985116422,-0.000911253,-0.021106673,0.05894462,-0.178161114,0.332084686,-9.945128441,-0.02933109,0.504353402,19.78880205,10178707,0.384389377,0.257972603,-23.99428916
242,1515079477,326447242,0.000996636,-0.004250584,-0.172205374,-0.985051453,0.002938059,-5.87958E-05,0.063123226,-0.307130694,0.255977929,-9.807297707,-0.028621926,0.499473076,19.83220519,10237300,0.381245188,0.260593126,-24.09468941
243,1515079477,336695034,0.001001039,-0.004367033,-0.172589451,-0.984983742,0.003327688,0.033963241,0.065865703,-0.258215725,0.359622478,-9.954794884,-0.026621101,0.512715356,19.87690291,10247792,0.378599047,0.264278462,-24.19670408
244,1515079477,346940371,0.001029618,-0.004560433,-0.172974974,-0.984915137,0.001170514,0.041605987,0.064716317,-0.052635062,0.31989029,-9.987769127,-0.025812407,0.535120287,19.92177084,10245337,0.378059783,0.267555846,-24.29903214
245,1515079477,357241713,0.001030718,-0.004679609,-0.173357844,-0.984847307,0.004674789,0.015641905,0.065060079,0.128860682,0.169271871,-9.951934814,-0.023360838,0.548602107,19.96633878,10301342,0.379387221,0.269299574,-24.40155042
246,1515079477,367541316,0.000990192,-0.004636596,-0.173747271,-0.984778941,0.006054216,-0.016211495,0.065916784,0.164478242,0.302439302,-9.95109272,-0.019426924,0.542950404,20.01166723,10299603,0.381081281,0.272414578,-24.50404273
247,1515079477,377813506,0.000929577,-0.004538903,-0.174135581,-0.984710753,0.009079591,-0.018141115,0.065391913,-0.079306573,0.324324131,-9.944272995,-0.014322264,0.530724479,20.05686688,10272190,0.380266629,0.275746097,-24.60619219
248,1515079477,388067857,0.000879597,-0.004527977,-0.17452459,-0.984642029,0.009706918,0.005585613,0.065794647,-0.325111538,0.292000771,-9.794576645,-0.008691516,0.528497797,20.10216311,10254351,0.376932821,0.278740376,-24.70662922
249,1515079477,398332963,0.00084281,-0.004646377,-0.174919099,-0.984571517,0.012073645,0.028809529,0.067411207,-0.161400244,0.308394551,-9.883520126,-0.001955826,0.541122479,20.1481187,10265106,0.37527603,0.281906079,-24.8080846
250,1515079477,408599580,0.000813883,-0.004796034,-0.17531462,-0.984500527,0.010182813,0.029565988,0.068233341,0.146806121,0.283592165,-9.864480019,0.004531926,0.557426115,20.19420025,10266617,0.376783233,0.284817611,-24.90935944
251,1515079477,418825961,0.000777502,-0.004874225,-0.175706118,-0.984430313,0.008515304,0.009088221,0.066511914,0.214084119,0.095721029,-9.792289734,0.010432287,0.565512395,20.23980593,10226381,0.378972538,0.28579649,-25.00949912
252,1515079477,429069677,0.00072222,-0.00482322,-0.176104605,-0.984359443,0.008483449,-0.016620971,0.068490125,0.084129661,0.07343851,-9.81804657,0.015867944,0.558639075,20.28621383,10243716,0.379834339,0.286548774,-25.1100724
253,1515079477,434193776,0.000665403,-0.004729424,-0.176502854,-0.984288573,0.00906232,-0.016583014,0.068695769,0.031357341,0.111958101,-9.775866508,0.020605481,0.546903811,20.33258686,5124099,0.379995017,0.287122458,-25.16016491
254,1515079477,444450159,0.000629101,-0.004690565,-0.176902115,-0.984217107,0.006945828,-0.001752246,0.067903787,-0.156013548,0.081382833,-9.799622536,0.024133952,0.541776769,20.37908245,10256383,0.378394882,0.287957152,-25.26067359
255,1515079477,454784901,0.000614172,-0.004736527,-0.177307636,-0.984143913,0.004721574,0.014029724,0.070267625,-0.243241906,0.099921711,-9.702234268,0.026974816,0.546646863,20.42631725,10334742,0.37588104,0.288989817,-25.36094368
256,1515079477,465096169,0.000616177,-0.00480864,-0.177714691,-0.984070122,0.00082148,0.014362473,0.070513755,-0.040925615,0.133151725,-9.876161575,0.028443496,0.554808602,20.47373149,10311268,0.375459045,0.29036278,-25.46277943
257,1515079477,475350665,0.00062269,-0.004825501,-0.178120911,-0.98399663,-0.001921516,-9.38786E-05,0.06965591,0.221974999,-0.03427818,-9.864715576,0.028282314,0.556831039,20.5210385,10254496,0.377735287,0.290011274,-25.56393711
258,1515079477,485636613,0.000625363,-0.004768565,-0.178535819,-0.983921707,-0.004107428,-0.012168054,0.071325921,0.149569675,-0.243982166,-9.765573502,0.027050698,0.550454089,20.56934536,10285948,0.379273753,0.287501686,-25.6643853
259,1515079477,495901602,0.000641882,-0.004670287,-0.178964347,-0.98384434,-0.008446654,-0.016423851,0.075416073,-0.010970151,-0.170535907,-9.713792801,0.023412451,0.539700924,20.6192268,10264989,0.379161144,0.285751137,-25.76409727
260,1515079477,506168843,0.000684796,-0.004597614,-0.17939131,-0.983766854,-0.012970078,-0.008685208,0.073740311,-0.046987079,-0.113656014,-9.757498741,0.017314613,0.532380201,20.66892155,10267241,0.378678716,0.284584204,-25.86427986
261,1515079477,516411409,0.000752626,-0.004581156,-0.179822192,-0.983688176,-0.01475933,0.003173608,0.073904306,0.026371574,-0.098562568,-9.702028275,0.009562456,0.531915014,20.71907643,10242566,0.378948829,0.28357467,-25.96365353
262,1515079477,526939035,0.000836887,-0.004577311,-0.180259079,-0.983608127,-0.017832564,0.003263505,0.075772889,0.069127962,0.017369477,-9.642776489,0.000221512,0.533217867,20.76992928,10527626,0.379676582,0.283757529,-26.06516907
263,1515079477,537174302,0.000922872,-0.004523174,-0.180698216,-0.98352778,-0.019497953,-0.008239723,0.076861568,0.061311021,0.143811643,-9.688741684,-0.010352745,0.528896662,20.82104012,10235267,0.380304117,0.28522948,-26.16433593
264,1515079477,547429028,0.000996628,-0.004426248,-0.181139693,-0.983446956,-0.018143626,-0.016636271,0.077508986,0.031375758,0.141096026,-9.728743553,-0.020439582,0.519508975,20.87242686,10254726,0.380625867,0.286676381,-26.26410153
265,1515079477,557685401,0.001074552,-0.004307176,-0.181586653,-0.98336494,-0.019311743,-0.01735203,0.078112863,-0.019945528,0.150727287,-9.606071472,-0.031462505,0.507721705,20.92445235,10256373,0.380421298,0.288222296,-26.36262498
266,1515079477,567886503,0.001151631,-0.004220268,-0.182035178,-0.983282268,-0.018472403,-0.009272588,0.079343207,-0.218024135,0.149409026,-9.737164497,-0.041729109,0.499551306,20.97667201,10201102,0.378197212,0.289746433,-26.46195479
267,1515079477,578107960,0.001240861,-0.004175913,-0.182485774,-0.983198881,-0.019011902,-0.001658856,0.078571692,-0.346032947,0.05117435,-9.813167572,-0.052481242,0.496438897,21.02914065,10221457,0.374660251,0.290269509,-26.56225966
268,1515079477,588375936,0.001332371,-0.004153116,-0.18293862,-0.983114719,-0.019718377,0.00133067,0.07940875,-0.214702606,0.116246268,-9.819835663,-0.06304012,0.49581312,21.08187749,10267976,0.372455689,0.291463123,-26.6630895
269,1515079477,598643955,0.0014194,-0.004122298,-0.18339479,-0.983029664,-0.018876212,-0.001802399,0.080021665,-0.102249987,0.22541073,-9.781537056,-0.073261605,0.49419964,21.13500601,10268019,0.371405785,0.293777645,-26.76352651
270,1515079477,608900422,0.001504548,-0.00407655,-0.183853731,-0.982944012,-0.017855475,-0.003799384,0.082004666,-0.296670943,0.117937699,-9.759255409,-0.083585863,0.490874635,21.18846382,10256467,0.368362989,0.294987269,-26.86362199
271,1515079477,619134678,0.001592658,-0.00402867,-0.184314355,-0.982857883,-0.019932024,-0.001622245,0.080776326,-0.38887924,-0.003627471,-9.888814926,-0.094291079,0.487382093,21.24212316,10234256,0.364383099,0.294950145,-26.96482665
272,1515079477,624282159,0.001692088,-0.004020549,-0.184782475,-0.982769787,-0.02199012,0.00874429,0.082781598,-0.264161468,-0.137385651,-9.850722313,-0.105428774,0.488617752,21.29665689,5147481,0.363023333,0.294242955,-27.01553306
273,1515079477,634514854,0.001816544,-0.004040791,-0.185251132,-0.982681274,-0.024904046,0.01334765,0.082642391,-0.236453623,-0.316816956,-9.775087357,-0.118781222,0.49358938,21.35124987,10232695,0.360603775,0.291001063,-27.11555854
274,1515079477,644748603,0.001955522,-0.004074343,-0.185713708,-0.982593536,-0.028570337,0.0135546,0.082546994,-0.33645618,-0.287631691,-9.919786453,-0.133484013,0.500380819,21.40513091,10233749,0.357160567,0.288057513,-27.21707515
275,1515079477,654946361,0.002113357,-0.004092174,-0.186180905,-0.982504725,-0.031526025,0.009894276,0.081982188,-0.290831327,-0.074566163,-9.924020767,-0.150636504,0.505819116,21.45954513,10197758,0.35419474,0.287297105,-27.31827791
276,1515079477,665152471,0.002286389,-0.004108476,-0.186650783,-0.98241514,-0.034600925,0.011938721,0.08309456,-0.176938325,0.095898509,-9.903159142,-0.169526082,0.511427293,21.51426909,10206110,0.352388888,0.288275856,-27.41935064
277,1515079477,675398717,0.002463133,-0.004142301,-0.187125862,-0.982324123,-0.032686014,0.017991778,0.084602043,-0.242610276,0.182938248,-9.80147171,-0.188449669,0.519106659,21.56959991,10246246,0.349903043,0.290150286,-27.51977893
278,1515079477,685673815,0.002649483,-0.004213791,-0.187602326,-0.982232511,-0.034041829,0.025198439,0.084545672,-0.300221831,0.339192569,-9.939533234,-0.207636867,0.531250827,21.62509298,10275098,0.346818234,0.293635523,-27.62190861
279,1515079477,695904448,0.002853985,-0.004300682,-0.188075811,-0.982140958,-0.036561336,0.02656072,0.083607733,-0.057567284,0.327312768,-9.771262169,-0.228525057,0.545537619,21.68022841,10230633,0.346229285,0.29698414,-27.72187481
280,1515079477,706135404,0.003057918,-0.004400043,-0.188541874,-0.982050538,-0.035044774,0.028365292,0.082462057,0.060758725,0.188551113,-9.663958549,-0.249070379,0.561233747,21.73449978,10230956,0.346850905,0.298913198,-27.82074634
281,1515079477,716387006,0.00323898,-0.004477281,-0.189013481,-0.981958926,-0.031814452,0.022109568,0.083161838,0.118576869,0.552655637,-9.813501358,-0.26750305,0.573966242,21.78943192,10251602,0.348066507,0.304578804,-27.92135045
282,1515079477,726599012,0.003415537,-0.004524914,-0.189488932,-0.981866539,-0.031805702,0.016473604,0.083304822,0.102221891,0.80480969,-9.892769814,-0.286057191,0.583288921,21.84482107,10212006,0.349110398,0.312797525,-28.02237548
283,1515079477,736832951,0.003589891,-0.004596009,-0.1899582,-0.981774867,-0.029561374,0.024657095,0.083172619,0.129127488,0.702611268,-9.644436836,-0.303847623,0.595219404,21.89948853,10233939,0.350431881,0.319988006,-28.12107606
284,1515079477,747051150,0.003750538,-0.004700646,-0.190434799,-0.981681466,-0.026143158,0.02603177,0.084416188,0.246070474,0.831481218,-9.745923996,-0.319348359,0.610643663,21.95502019,10218199,0.352946278,0.328484246,-28.22066185
285,1515079477,757320174,0.003904874,-0.004809786,-0.190913111,-0.98158741,-0.024454519,0.028851043,0.085101262,0.355953187,0.762595773,-9.658072472,-0.334024597,0.626452061,22.01075627,10269024,0.35660157,0.336315361,-28.31984082
286,1515079477,767547047,0.004033942,-0.00492309,-0.191390976,-0.981493294,-0.020760246,0.025832832,0.085554734,0.3753075,0.845710814,-9.767814636,-0.34575253,0.642189161,22.06645822,10226873,0.360439792,0.344964338,-28.41973502
287,1515079477,777759251,0.00414068,-0.004984831,-0.191868871,-0.981399238,-0.01958812,0.014558197,0.084807239,0.324717164,0.925767124,-9.32557869,-0.356087208,0.651647705,22.12218574,10212204,0.36375587,0.35441846,-28.51496974
288,1515079477,787948172,0.004233398,-0.005018753,-0.192351907,-0.981304109,-0.016240034,0.009535773,0.085792772,0.292222559,0.700216591,-9.548402786,-0.365445717,0.657681134,22.17852947,10188921,0.366733302,0.361552912,-28.61225766
289,1515079477,798135928,0.004314985,-0.005065956,-0.192839712,-0.981207728,-0.01260276,0.017109031,0.087777227,0.282921433,0.687274277,-9.662747383,-0.373250105,0.664973223,22.23543937,10187756,0.369615637,0.368554695,-28.71069937
290,1515079477,808408205,0.004407795,-0.005147966,-0.193336487,-0.981109142,-0.014883643,0.022138234,0.08982297,0.167503625,0.787284374,-9.683423996,-0.38153199,0.676438649,22.29339144,10272277,0.37133628,0.376641898,-28.81017018
291,1515079477,818639821,0.004485279,-0.005223903,-0.193848744,-0.981007278,-0.011128911,0.017870903,0.091962732,0.195002124,0.818458021,-9.577896118,-0.388203378,0.686895724,22.35316647,10231616,0.373331467,0.385016046,-28.90816754
292,1515079477,828899830,0.004538435,-0.005260427,-0.194371313,-0.980903506,-0.007784933,0.00963312,0.094140738,0.220262632,0.908129334,-9.737231255,-0.392999484,0.692392029,22.4141747,10260009,0.375591364,0.394333461,-29.00807162
293,1515079477,834074640,0.004588739,-0.005271995,-0.194892451,-0.980799794,-0.008786675,0.005459065,0.092985578,0.107317477,0.674683273,-9.87011528,-0.398027553,0.69502432,22.47502555,5174810,0.376146711,0.397824819,-29.05914759
294,1515079477,844305104,0.004652168,-0.005299431,-0.195415959,-0.980695128,-0.010892098,0.007868415,0.095040753,0.077033907,0.101035796,-9.938077927,-0.404171024,0.699740254,22.53614781,10230464,0.376934804,0.398858462,-29.16081874
295,1515079477,854560840,0.004725456,-0.00537954,-0.195965752,-0.980584621,-0.012796569,0.020821227,0.101049297,0.327095777,-0.071496494,-9.769378662,-0.410215951,0.710614463,22.60033493,10255736,0.380289412,0.398125213,-29.26101091
296,1515079477,864760889,0.004817849,-0.005460479,-0.196529359,-0.980470955,-0.01835189,0.016968902,0.102002934,0.46380955,0.184526861,-10.10503674,-0.41836684,0.722024973,22.66613075,10200049,0.385020292,0.400007396,-29.36408278
297,1515079477,874995357,0.004926057,-0.005487554,-0.197104171,-0.980354846,-0.024469549,0.007113642,0.105710216,0.377059728,-0.098578535,-9.887774467,-0.429489295,0.727755751,22.73323873,10234468,0.388879298,0.398998497,-29.46527889
298,1515079477,885186520,0.005034961,-0.005432507,-0.197693184,-0.980235994,-0.026817668,-0.006282632,0.108144164,0.382000446,-0.300729781,-9.954694748,-0.442532847,0.724297124,22.80202752,10191163,0.392772327,0.395933711,-29.56672881
299,1515079477,895424369,0.005160083,-0.005322865,-0.198284417,-0.980116487,-0.031156488,-0.015553663,0.108095214,0.302813709,-0.199683875,-9.915132523,-0.458640775,0.715091844,22.87108356,10237849,0.395872488,0.393889377,-29.66823844
300,1515079477,905645144,0.005316565,-0.005219405,-0.198890164,-0.979993522,-0.035615526,-0.009333295,0.111004375,0.041480906,-0.146863058,-9.969631195,-0.47813071,0.70732241,22.94182806,10220775,0.396296455,0.392388323,-29.77013579
301,1515079477,915850376,0.005498315,-0.005168211,-0.199507028,-0.979867339,-0.038070619,0.002457112,0.113575175,-0.040952668,-0.03567392,-9.803617477,-0.499265167,0.7060295,23.0138538,10205232,0.395878523,0.392024262,-29.87018398
302,1515079477,926076518,0.005699988,-0.005171276,-0.200126931,-0.979739785,-0.041642569,0.009900592,0.113751598,0.150162667,0.173915252,-9.830462456,-0.521392426,0.711313999,23.08622083,10226142,0.397414108,0.393802745,-29.97071169
303,1515079477,936314855,0.005913181,-0.00515543,-0.200759038,-0.979609311,-0.043487519,0.002166146,0.116862327,0.351506323,0.010224019,-9.875020027,-0.545232405,0.714775542,23.1600212,10238337,0.401012948,0.393907421,-30.07181547
304,1515079477,946515372,0.006123094,-0.005102648,-0.2014011,-0.979476392,-0.044307392,-0.004657958,0.118664615,0.425291687,-0.10905423,-9.941786766,-0.569544707,0.71405242,23.23500566,10200517,0.405351143,0.392795012,-30.17322684
305,1515079477,956742646,0.006345004,-0.005022361,-0.202048406,-0.979342103,-0.049252741,-0.007978167,0.119374,0.460573018,0.079719633,-9.77689743,-0.595837483,0.710555487,23.31061902,10227274,0.41006155,0.393610326,-30.27321785
306,1515079477,966953961,0.006587499,-0.004914743,-0.202697769,-0.97920686,-0.053985268,-0.01230406,0.119930089,0.453839034,-0.036023896,-9.921925545,-0.625078285,0.704506229,23.38648167,10211315,0.414695843,0.393242475,-30.37453375
307,1515079477,977222946,0.006835167,-0.004790218,-0.203359246,-0.979068637,-0.057675671,-0.014103666,0.12331529,0.28707698,-0.104705773,-9.976240158,-0.655293004,0.696727748,23.46378068,10268985,0.417643832,0.392167253,-30.47697961
308,1515079477,987468927,0.007096731,-0.004652637,-0.204025969,-0.978928685,-0.060828146,-0.013880254,0.124345616,0.082745969,0.130788788,-9.986083031,-0.687378688,0.687854277,23.54170576,10245981,0.418491646,0.393507313,-30.57929683
309,1515079477,997719754,0.007380195,-0.004524661,-0.204697847,-0.978786945,-0.063103735,-0.010985086,0.124367975,0.060044244,0.112259403,-9.943494797,-0.721704635,0.680619842,23.62023545,10250827,0.419107149,0.394658064,-30.68122587
310,1515079478,7944840,0.007675456,-0.004421886,-0.205380321,-0.978642225,-0.062617138,-0.004101525,0.126107916,0.145583242,0.122413002,-9.808773994,-0.756763777,0.676544993,23.7000042,10225086,0.42059575,0.395909748,-30.78152143
311,1515079478,18174330,0.007974996,-0.004314583,-0.206063509,-0.978496671,-0.061155189,-0.008129109,0.125660896,0.11304757,0.379716039,-10.06469727,-0.792415001,0.672113312,23.77987137,10229490,0.421752169,0.399794049,-30.88447815
312,1515079478,28447963,0.008274658,-0.004171802,-0.206748247,-0.978350282,-0.062831752,-0.018368358,0.126949891,-0.102785043,0.717779815,-10.00490761,-0.828925382,0.663758357,23.85995593,10273633,0.420696193,0.407168256,-30.9872649
313,1515079478,38700904,0.008559277,-0.003980807,-0.207434431,-0.978203416,-0.063405305,-0.029182447,0.127170175,-0.238911822,1.005189419,-10.14635181,-0.864906114,0.649693957,23.94027075,10252941,0.418246645,0.417474403,-31.09129485
314,1515079478,43846781,0.008812025,-0.003791883,-0.20811823,-0.978056669,-0.057818115,-0.026764885,0.127614141,-0.340592623,1.149065971,-10.16580582,-0.897286424,0.635150411,24.02034627,5145877,0.416493997,0.423387356,-31.14360683
315,1515079478,54052909,0.009039031,-0.00367225,-0.208794892,-0.977910817,-0.047481276,-0.008976123,0.125407755,-0.521054149,1.347628832,-10.17498302,-0.925149778,0.627795184,24.09957492,10206128,0.411176051,0.437141428,-31.24745401
316,1515079478,64265852,0.009231866,-0.003641455,-0.209472805,-0.97776413,-0.036086585,0.008825188,0.125639975,-0.528436124,1.759181023,-10.15202904,-0.947062254,0.629614104,24.1789238,10212943,0.405779163,0.455107843,-31.35113611
317,1515079478,74492194,0.009398698,-0.00365221,-0.210150614,-0.977617085,-0.03097613,0.009938101,0.125947237,-0.285422474,1.745883465,-10.17998409,-0.965059138,0.635492516,24.25825906,10226342,0.402860336,0.472961845,-31.45524011
318,1515079478,84684136,0.009498934,-0.003627411,-0.210829347,-0.97747004,-0.018865224,-0.003466423,0.126597732,-0.179491028,1.878759146,-10.34204865,-0.976445684,0.635805928,24.33777775,10191942,0.401030973,0.492110049,-31.56064567
319,1515079478,94967153,0.009517943,-0.003540757,-0.211516485,-0.977321684,-0.00638448,-0.019441692,0.128663957,-0.436933637,2.253533125,-10.35295105,-0.980226968,0.627247785,24.41838728,10283017,0.396537977,0.515283168,-31.66710524
320,1515079478,105214731,0.009470907,-0.003429322,-0.212210327,-0.977172077,0.006343514,-0.020802367,0.129645526,-0.683495045,2.423163414,-10.24873924,-0.977222137,0.614321333,24.49985206,10247578,0.389533809,0.540114725,-31.77212999
321,1515079478,115422211,0.00937543,-0.003386941,-0.212915361,-0.977019787,0.02117569,-0.006287966,0.131006837,-0.813334286,2.25601244,-10.22292137,-0.967121183,0.60795185,24.58261905,10207480,0.381231715,0.563142926,-31.87648026
322,1515079478,125651358,0.009244804,-0.003453978,-0.213629588,-0.976864874,0.031411074,0.013198288,0.132555738,-0.832844257,2.156441212,-10.15498161,-0.950411802,0.612965794,24.66641751,10229147,0.372712429,0.585201481,-31.98035706
323,1515079478,135906960,0.009069076,-0.003611566,-0.21435535,-0.976706982,0.043074232,0.025284708,0.135718852,-0.611899137,2.111617088,-10.24869442,-0.926416325,0.626994066,24.75154926,10255602,0.366437035,0.606857385,-32.08546359
324,1515079478,146113777,0.008843099,-0.003770347,-0.215092227,-0.976546466,0.052186184,0.018546924,0.138842881,-0.366374493,1.944959044,-9.947400093,-0.896739908,0.639892689,24.83803581,10206817,0.362697517,0.626709226,-32.18699488
325,1515079478,156319233,0.008564488,-0.003880876,-0.215833455,-0.976384997,0.06217508,0.003295706,0.140133068,-0.361585379,2.129571438,-10.14499474,-0.862344706,0.646050219,24.92511742,10205456,0.359007374,0.648442474,-32.29052918
326,1515079478,166499314,0.008225281,-0.003920732,-0.216581419,-0.976222038,0.072027653,-0.00216537,0.139175385,-0.543330073,2.091303349,-9.878517151,-0.822909659,0.642751529,25.01308409,10180081,0.35347623,0.669732111,-32.39109328
327,1515079478,176748337,0.007835632,-0.003998951,-0.217345297,-0.976055205,0.089203857,-0.000180459,0.141354203,-0.795924425,2.637924194,-10.10656929,-0.776872359,0.642440648,25.10294779,10249023,0.345318782,0.696768257,-32.49467574
328,1515079478,187013737,0.007471544,-0.004243878,-0.218117446,-0.975884736,0.094810933,0.036771689,0.145519421,-0.614534616,2.769770622,-9.880246162,-0.729524044,0.661346593,25.19370704,10265400,0.339010338,0.72520106,-32.59610042
329,1515079478,197268525,0.007087879,-0.004551558,-0.218892127,-0.975712776,0.088348895,0.043928824,0.145603448,-0.222659081,2.121655464,-10.05371284,-0.67838172,0.686705671,25.28478956,10254788,0.336727017,0.746958187,-32.69919912
330,1515079478,207506069,0.006625937,-0.004825808,-0.219685927,-0.975536287,0.100783773,0.022119969,0.151012063,-0.178234756,1.789509773,-10.40668774,-0.619275251,0.706288712,25.37822496,10237544,0.33490233,0.765278372,-32.80573804
331,1515079478,217811858,0.006131283,-0.004971365,-0.220484793,-0.975358486,0.105435297,0.001926128,0.152780086,-0.360663116,1.774255276,-9.924121857,-0.559727253,0.710568173,25.4723541,10305789,0.331185412,0.783563473,-32.90801395
332,1515079478,228072091,0.005613193,-0.00505855,-0.221293345,-0.975178003,0.103582889,-0.005438791,0.156083897,-0.450886667,1.222962379,-10.06328773,-0.499026305,0.707637911,25.5676779,10260233,0.32655921,0.796111352,-33.01126562
333,1515079478,238316228,0.005098474,-0.005221077,-0.22211352,-0.974993527,0.100939214,0.019819386,0.157713026,-0.662149668,0.874082625,-10.01882458,-0.436781678,0.713116694,25.66437864,10244137,0.319776058,0.805065574,-33.11389984
334,1515079478,248535912,0.004598693,-0.005516071,-0.222939253,-0.974805892,0.102427058,0.046434734,0.158860743,-0.984479427,0.813174486,-10.34422207,-0.372809248,0.733672759,25.76174571,10219684,0.30971499,0.81337596,-33.21961452
335,1515079478,253701912,0.004118382,-0.005912932,-0.223780751,-0.974612951,0.113547921,0.059404951,0.162103578,-0.714898229,0.785093904,-10.02621841,-0.308352268,0.766002562,25.86100828,5166000,0.306021825,0.817431755,-33.27140996
336,1515079478,263929087,0.003646717,-0.006269316,-0.224631056,-0.974416912,0.108893938,0.052632805,0.162238568,-0.23783353,0.869004846,-9.999745369,-0.24583924,0.793926453,25.96135969,10227175,0.30358946,0.82631922,-33.37367911
337,1515079478,274136702,0.003144871,-0.006513208,-0.225497484,-0.974216938,0.105602697,0.026382113,0.165324956,-0.113882765,0.486136794,-10.1657896,-0.182800581,0.808405893,26.06367246,10207615,0.302426989,0.831281517,-33.47744757
338,1515079478,284356338,0.002644225,-0.006694302,-0.226377904,-0.974012971,0.105548546,0.008624335,0.170149967,-0.351534098,0.028909966,-10.07922459,-0.12148712,0.815797013,26.16765958,10219636,0.298834438,0.831576966,-33.58045358
339,1515079478,294595634,0.002167444,-0.006930632,-0.227272123,-0.973804235,0.105382845,0.022293732,0.171908781,-0.254928768,0.145345941,-9.972973824,-0.061373259,0.829864231,26.27330761,10239296,0.296224147,0.833065207,-33.68256981
340,1515079478,304866530,0.001738761,-0.007223696,-0.228179827,-0.973590672,0.09537445,0.041107405,0.173644081,-0.135104209,0.171439946,-9.999120712,-0.005104444,0.851409169,26.38057227,10270896,0.294836506,0.834826048,-33.78526974
341,1515079478,315097857,0.001345226,-0.007538725,-0.229098096,-0.973373234,0.08698494,0.048302893,0.175731823,-0.173562154,-0.201042607,-10.08387089,0.047870532,0.876222078,26.48911476,10231327,0.293060735,0.832769116,-33.88844112
342,1515079478,325312728,0.000950579,-0.007819011,-0.230033562,-0.973150849,0.087853439,0.035303999,0.18124257,-0.008000133,-0.335226506,-9.886491776,0.100117003,0.897029822,26.59972001,10214871,0.292979014,0.82934482,-33.98943036
343,1515079478,335532574,0.000584398,-0.008047484,-0.230973989,-0.972926497,0.079516895,0.022787193,0.181847528,0.169909343,-0.301908016,-9.910955429,0.147862979,0.912713514,26.71090661,10219846,0.294715462,0.826259367,-34.0907188
344,1515079478,345781068,0.000223979,-0.008254818,-0.231920928,-0.972699642,0.076971091,0.024062274,0.181942463,0.067861438,-0.392817914,-9.831111908,0.194441865,0.926100972,26.82288675,10248494,0.295410939,0.822233575,-34.19147289
345,1515079478,356030692,-9.42374E-05,-0.008503086,-0.232883438,-0.972467482,0.070444755,0.04155485,0.18629694,-0.080224119,-0.461168259,-9.847949982,0.237451874,0.945082679,26.93673372,10249624,0.294588672,0.817506774,-34.29241067
346,1515079478,366318498,-0.000384194,-0.008789437,-0.233847395,-0.972233534,0.065358877,0.048542835,0.18683514,0.209226236,-0.455171704,-9.752902985,0.27837386,0.968979988,27.05080204,10287806,0.296741151,0.812824055,-34.39274665
347,1515079478,376572598,-0.000650263,-0.009079049,-0.234816685,-0.971997082,0.063071176,0.044033542,0.188034266,0.44334054,-0.527980387,-9.655363083,0.316776443,0.993801221,27.16552935,10254100,0.301287209,0.807410092,-34.4917537
348,1515079478,386900831,-0.000892781,-0.009310675,-0.235787988,-0.971759558,0.055939902,0.031662598,0.186886907,0.441654503,-0.617860377,-9.712015152,0.351041114,1.012724718,27.28047297,10328233,0.30584872,0.801028686,-34.59206166
349,1515079478,397134273,-0.001135308,-0.009460103,-0.236768275,-0.971519411,0.050614178,0.01831783,0.190083191,0.364207923,-0.592056215,-9.720441818,0.383123448,1.022425099,27.39644471,10233442,0.309575821,0.794969913,-34.69153524
350,1515079478,407388879,-0.001351701,-0.009587915,-0.237747625,-0.971278727,0.043964978,0.018046243,0.190074563,0.338861287,-0.602928877,-9.55811882,0.411726837,1.030368161,27.51230057,10254606,0.31305071,0.788787115,-34.78954998
351,1515079478,417599767,-0.001539393,-0.009745545,-0.238726199,-0.971036792,0.040975556,0.025484985,0.188924938,0.33605063,-0.750317156,-9.599485397,0.437968197,1.042358155,27.62809873,10210888,0.316482085,0.78112571,-34.88756925
352,1515079478,427800622,-0.001677101,-0.009957463,-0.239710003,-0.970792055,0.031412132,0.038726397,0.189646304,0.365227342,-0.821717083,-9.698348999,0.460171318,1.061706592,27.74455737,10200855,0.320207716,0.772743493,-34.9865007
353,1515079478,438023740,-0.001765733,-0.010197008,-0.240693569,-0.970546067,0.025228215,0.046359789,0.189284682,0.590891838,-0.804924309,-9.739247322,0.477717969,1.085437839,27.86100698,10223118,0.326248473,0.764514657,-35.08606618
354,1515079478,448242801,-0.001836085,-0.010394499,-0.241675019,-0.97029984,0.019942965,0.033312276,0.189274967,0.82867986,-0.684809268,-9.692219734,0.492112854,1.104965416,27.97718056,10219061,0.334716803,0.75751655,-35.18511156
355,1515079478,458466776,-0.001901223,-0.010460268,-0.242648989,-0.970055938,0.012453774,0.006472344,0.187541485,0.76210624,-0.574696541,-9.61895752,0.502294352,1.1099706,28.09236415,10223975,0.342508558,0.751640866,-35.28345554
356,1515079478,463620706,-0.001951502,-0.010447019,-0.243617728,-0.969813108,0.006391786,-0.006014297,0.186406717,0.561800599,-0.646268129,-9.796444893,0.508621193,1.106591851,28.20685865,5153930,0.345404039,0.748310046,-35.33394573
357,1515079478,473800614,-0.00196625,-0.010441684,-0.244590238,-0.969568372,-0.000185804,0.002444951,0.187652677,0.445457935,-0.743821263,-9.634884834,0.511220064,1.105075052,28.32180206,10179908,0.34993876,0.740738014,-35.43202797
358,1515079478,484018411,-0.001929572,-0.010509252,-0.24556531,-0.969321132,-0.007767441,0.023012107,0.18882972,0.522840023,-0.627535522,-9.620155334,0.510159441,1.113098269,28.43710069,10217797,0.355281033,0.734325983,-35.53032477
359,1515079478,494198931,-0.001847478,-0.010646583,-0.24654229,-0.969071805,-0.011802726,0.036258753,0.188258365,0.697095335,-0.451251626,-9.610277176,0.506046398,1.130154797,28.55268667,10180520,0.362377826,0.729732007,-35.62816239
360,1515079478,504400035,-0.001738828,-0.010778572,-0.24752143,-0.96882093,-0.018017536,0.031491809,0.189262643,0.957560062,-0.510765731,-9.649824142,0.498870759,1.147379901,28.66852398,10201104,0.372145996,0.724521633,-35.72660125
361,1515079478,514614345,-0.001624195,-0.010791192,-0.248501584,-0.968570054,-0.025503604,0.003009675,0.189450413,1.117434502,-0.588396788,-9.681657791,0.487665681,1.151540512,28.78437509,10214310,0.383559818,0.718511565,-35.8254927
362,1515079478,524803898,-0.001525764,-0.010665003,-0.249479875,-0.968320072,-0.030251609,-0.023530135,0.189208359,0.974262595,-0.522261977,-9.593507767,0.47429422,1.139858899,28.89990404,10189553,0.393487119,0.713189949,-35.92324626
363,1515079478,535276556,-0.001412131,-0.010448017,-0.250456959,-0.968070388,-0.036993124,-0.034640457,0.18847245,0.46562922,-0.621983051,-9.77128315,0.456604082,1.118569236,29.01521514,10472658,0.398363494,0.706676134,-36.02557756
364,1515079478,545487475,-0.00125436,-0.010264186,-0.251437038,-0.967818439,-0.043551803,-0.019267855,0.18971096,0.055130631,-0.909705162,-9.790533066,0.434935492,1.10226416,29.13090605,10210919,0.398926429,0.697387208,-36.1255479
365,1515079478,555655043,-0.001026474,-0.010226421,-0.252420485,-0.967563093,-0.050021783,0.015943658,0.190972313,0.07744801,-0.753769994,-9.766155243,0.409691253,1.104227308,29.24710869,10167568,0.399713887,0.6897232,-36.22484595
366,1515079478,565864001,-0.000727437,-0.010312051,-0.253410935,-0.967303514,-0.05850425,0.038662042,0.191015318,0.452572316,-0.335463047,-9.639933586,0.380157454,1.121985195,29.36421922,10208958,0.404334178,0.686298472,-36.32325963
367,1515079478,576068499,-0.000392849,-0.01040395,-0.254405618,-0.967041612,-0.065379992,0.033564001,0.193450049,0.747276306,-0.565984726,-9.503500938,0.346908079,1.141534566,29.48182723,10204498,0.411959758,0.680522882,-36.42023809
368,1515079478,586329601,-8.54126E-05,-0.010350212,-0.255398571,-0.966780484,-0.068483964,-0.004567008,0.192402169,0.838282108,-0.693154275,-9.685254097,0.312440958,1.144223295,29.59914976,10261102,0.420561456,0.673410355,-36.51961947
369,1515079478,596562572,0.000216267,-0.010159475,-0.256392002,-0.966519475,-0.072760783,-0.028005088,0.192295432,0.791784585,-0.531262159,-9.738536835,0.27459098,1.131639937,29.71644848,10232971,0.428663765,0.667973965,-36.61927363
370,1515079478,606751144,0.000539009,-0.009920325,-0.257383943,-0.966258168,-0.079360612,-0.017556723,0.192395389,0.581705749,-0.452245235,-9.584292412,0.232953262,1.114396102,29.83355456,10188572,0.434590516,0.663366232,-36.71692388
371,1515079478,616922691,0.000910029,-0.009794561,-0.258385509,-0.965991795,-0.085747167,0.00755227,0.194388092,0.370097011,-0.437706113,-9.859127998,0.189305944,1.111218632,29.95188955,10171547,0.438354975,0.658914084,-36.81720647
372,1515079478,627134707,0.001343657,-0.009796629,-0.259393007,-0.96572125,-0.088860042,0.033186071,0.196509346,0.505028546,-0.300126821,-9.815151215,0.142531165,1.124140589,30.07100039,10212016,0.443512335,0.655849184,-36.91743895
373,1515079478,637355131,0.001787452,-0.00980311,-0.260408342,-0.965447187,-0.088969707,0.019496758,0.19611609,0.775987267,-0.000588931,-9.725143433,0.094799803,1.137952063,30.19106315,10220424,0.451443253,0.655843165,-37.01683404
374,1515079478,647542380,0.002229871,-0.009748356,-0.261421591,-0.965172887,-0.08534611,-0.000583566,0.194444448,0.819008946,0.255914867,-9.812880516,0.045412571,1.14505051,30.31086723,10187249,0.459786702,0.658450233,-37.1168003
375,1515079478,657775851,0.002639578,-0.009572014,-0.262436539,-0.964898169,-0.087221906,-0.014909179,0.195384279,0.701249242,0.256052196,-9.703368187,-0.003997448,1.137824654,30.43087079,10233471,0.466962915,0.661070536,-37.21609943
376,1515079478,668036843,0.003036581,-0.009372358,-0.2634601,-0.964619994,-0.089420557,-0.007490261,0.19698742,0.563885808,0.189413071,-9.68759346,-0.052711317,1.127743359,30.55194389,10260992,0.472748943,0.663014102,-37.31550375
377,1515079478,678301785,0.003465064,-0.009291793,-0.26448825,-0.964337945,-0.081834175,0.016869705,0.197227344,0.629258275,0.503765464,-9.505825996,-0.101309846,1.131882692,30.67363893,10264942,0.479208243,0.668185225,-37.4130805
378,1515079478,683526160,0.003933086,-0.009368988,-0.265515685,-0.964053035,-0.077857241,0.043265797,0.197007328,0.876069665,1.024402857,-9.534609795,-0.149468272,1.154759689,30.79531838,5224375,0.483785159,0.67353709,-37.46289288
379,1515079478,693776181,0.004389252,-0.009446232,-0.266537607,-0.963768244,-0.079751916,0.032767635,0.197089225,1.023670077,1.443062305,-9.971255302,-0.196273601,1.177382638,30.91637817,10250021,0.494277799,0.688328509,-37.56509846
380,1515079478,704030777,0.00475941,-0.009351217,-0.267554462,-0.963485658,-0.081235558,-0.008568443,0.198555276,1.046113729,1.304340482,-9.959089279,-0.238821433,1.178446996,31.03688658,10254596,0.505005273,0.701703993,-37.66722489
381,1515079478,714251635,0.005049414,-0.00912456,-0.268568784,-0.963204086,-0.072639838,-0.033021577,0.199437276,1.036147475,0.972086787,-9.750544548,-0.276572447,1.162602963,31.15716994,10220858,0.515595589,0.711639554,-37.76688383
382,1515079478,724445206,0.005309291,-0.008917363,-0.269569516,-0.962925017,-0.063162021,-0.021264985,0.194987893,0.633649945,0.98592937,-9.906283379,-0.310446532,1.148052231,31.27592191,10193571,0.522054745,0.721689695,-37.86786423
383,1515079478,734666047,0.005560436,-0.008799327,-0.270566076,-0.962645113,-0.055000074,0.006628507,0.192090735,0.064124875,1.101825237,-9.887942314,-0.34062761,1.143137433,31.39425507,10220841,0.522710155,0.732951276,-37.96892731
384,1515079478,744841061,0.00581677,-0.008806509,-0.271568894,-0.962361157,-0.041813575,0.03191172,0.193892807,0.037198152,1.693773389,-10.07363033,-0.367487093,1.152260947,31.51339947,10175014,0.523088647,0.750185444,-38.07142664
385,1515079478,755022796,0.006075582,-0.008874629,-0.272559315,-0.962078869,-0.044065453,0.030735062,0.193032116,0.662812829,2.006470203,-9.76216507,-0.392712729,1.168232921,31.63110977,10181735,0.529837231,0.770614792,-38.17082242
386,1515079478,765263723,0.006305989,-0.008959146,-0.273538172,-0.961798787,-0.048000749,0.017507788,0.190787226,1.246856809,1.466392994,-10.32873821,-0.414274764,1.185170338,31.74750753,10240927,0.542606201,0.785632015,-38.27659828
387,1515079478,775502154,0.006479979,-0.008999287,-0.274518669,-0.961517811,-0.032877687,0.00056223,0.19123131,1.526535034,0.92268008,-10.28265381,-0.430978463,1.195488694,31.86417906,10238431,0.558235524,0.795078812,-38.38187652
388,1515079478,785743268,0.006586609,-0.008932645,-0.275508136,-0.961234689,-0.02066558,-0.017859209,0.194008663,1.659651399,1.550467372,-10.05837345,-0.443599656,1.191956577,31.98200494,10241114,0.575232203,0.810957325,-38.48488547
389,1515079478,795956556,0.006631917,-0.008746217,-0.276498795,-0.960951626,-0.023485128,-0.032263368,0.191846862,1.69266665,2.089173794,-10.17308426,-0.453267357,1.173317208,32.1000512,10213288,0.592519895,0.832294658,-38.58878611
390,1515079478,806163270,0.006614437,-0.008505079,-0.277483553,-0.960669994,-0.010653673,-0.039152656,0.189906999,1.20554173,1.430083752,-9.800375938,-0.457806399,1.146676445,32.21748566,10206714,0.604824515,0.846891114,-38.68881574
391,1515079478,816380473,0.006559628,-0.008299084,-0.278471053,-0.960386395,0.007883988,-0.041901201,0.192116797,0.677554965,1.84976387,-10.07487488,-0.45716658,1.122724695,32.33532772,10217203,0.611747232,0.865790527,-38.79175278
392,1515079478,826572305,0.006498655,-0.008120846,-0.279472768,-0.960097313,0.005989452,-0.039155897,0.197073147,0.516153872,2.240473032,-9.935437202,-0.454992817,1.101636473,32.45491166,10191832,0.617007785,0.888625052,-38.89301309
393,1515079478,836769444,0.006416916,-0.008016442,-0.280466974,-0.959808767,0.003394935,-0.028442027,0.195368871,0.682274163,1.786203861,-10.01527119,-0.44821457,1.087995841,32.57366434,10197139,0.62396503,0.906839221,-38.9951402
394,1515079478,846924177,0.006255304,-0.007954914,-0.281470537,-0.959516525,0.023220845,-0.021931734,0.197289303,0.672691703,1.740759373,-10.26368141,-0.431287544,1.076485496,32.69365125,10154733,0.630796034,0.924516168,-39.09936515
395,1515079478,857165650,0.006054071,-0.007887243,-0.282472134,-0.959223986,0.044006571,-0.017086618,0.195991352,0.582207024,2.158029556,-10.06984425,-0.410229825,1.062982414,32.81347269,10241473,0.636758692,0.946617569,-39.20249518
396,1515079478,867456427,0.005802786,-0.00777404,-0.283472091,-0.958931446,0.055756368,-0.028124288,0.193408787,0.683210969,2.231058598,-10.17167377,-0.385180355,1.04280626,32.93316888,10290777,0.643789464,0.969576896,-39.30716961
397,1515079478,877722000,0.005480058,-0.007650671,-0.284492791,-0.958631992,0.057518616,-0.045614116,0.197754666,0.667609811,2.220660448,-10.03703117,-0.352633125,1.019141066,33.05543504,10265573,0.650642861,0.992373248,-39.41020549
398,1515079478,888009554,0.005125975,-0.007561083,-0.285516441,-0.958330333,0.059133239,-0.046793841,0.202216431,0.681707144,1.896586657,-10.41372776,-0.31558461,0.998093187,33.17811964,10287554,0.65765596,1.011884485,-39.51733727
399,1515079478,898248505,0.004738952,-0.007498683,-0.286537349,-0.958028018,0.069404691,-0.036736466,0.201734304,0.663862228,1.435883999,-10.15802193,-0.274074885,0.978869887,33.30053809,10238951,0.664453213,1.026586431,-39.62134476
400,1515079478,903429954,0.004312971,-0.007457715,-0.287564576,-0.957722545,0.081222564,-0.0301119,0.200631052,0.6681059,1.691630363,-10.15128517,-0.227617668,0.960629354,33.4237833,5181449,0.667914969,1.035351528,-39.67394313
401,1515079478,913686119,0.003844935,-0.007331212,-0.288595498,-0.957415342,0.083221167,-0.047950644,0.20252125,0.526523352,1.620610952,-10.10416603,-0.179410807,0.931515241,33.54750391,10256165,0.67331508,1.051972781,-39.77757312
402,1515079478,923952097,0.003327314,-0.007199496,-0.289638638,-0.957103252,0.092582166,-0.055531073,0.206263408,0.26975593,1.467114091,-10.24449253,-0.125989675,0.900082586,33.67274838,10265978,0.676084388,1.067034142,-39.88274286
403,1515079478,934154343,0.002803069,-0.007154935,-0.290685833,-0.956787705,0.099214137,-0.037561145,0.208012089,0.104563907,1.751751661,-9.850922585,-0.069004076,0.877870572,33.79854006,10202246,0.677151175,1.084905943,-39.98324439
404,1515079478,944380021,0.002284386,-0.007238644,-0.291742116,-0.956466913,0.105256245,-0.009182212,0.209014833,0.325304925,1.707981586,-9.932379723,-0.008380206,0.869780518,33.92550944,10225678,0.680477638,1.102371213,-40.08480971
405,1515079478,954738990,0.00175351,-0.007391528,-0.292798966,-0.956143856,0.110668354,0.006049835,0.208611324,0.652900815,1.531666875,-9.882915497,0.055884056,0.868727846,34.05263764,10358969,0.687241018,1.118237703,-40.18718652
406,1515079478,965003641,0.001170866,-0.007530475,-0.29384616,-0.955822349,0.12025819,-0.007974917,0.206520066,0.756429136,1.676670909,-10.17768288,0.125338687,0.864265169,34.17869044,10264651,0.695005499,1.135448144,-40.29165689
407,1515079478,975304855,0.000543254,-0.007531804,-0.294889748,-0.955501437,0.121609479,-0.043290481,0.205138922,0.763935506,1.284096599,-9.779177666,0.195053027,0.843063254,34.30429576,10301214,0.702874962,1.148675898,-40.39239429
408,1515079478,985509986,-0.000145496,-0.007445129,-0.295936048,-0.955178738,0.12633732,-0.060961276,0.207178816,0.692941189,0.932307184,-9.808839798,0.268430659,0.810002692,34.43023284,10205131,0.709946517,1.158190215,-40.49249478
409,1515079478,995737715,-0.000852277,-0.007410894,-0.296999156,-0.954848647,0.133270115,-0.041237772,0.211675361,0.394689739,1.203162909,-9.842709541,0.345507766,0.781900371,34.55825924,10227729,0.713983297,1.170495839,-40.59316335
410,1515079479,6008963,-0.001522668,-0.007507694,-0.298069268,-0.95451355,0.136201367,-0.011073907,0.212780401,0.340658754,1.240835071,-9.793473244,0.423024659,0.769200036,34.68724244,10271248,0.717482288,1.183240764,-40.69375454
411,1515079479,16221383,-0.002182661,-0.00769657,-0.299151897,-0.954172015,0.138798892,0.000348792,0.214788049,0.58779484,1.10570097,-9.919953346,0.502544363,0.766744095,34.81785622,10212420,0.723485095,1.194532647,-40.79506127
412,1515079479,26457124,-0.002875675,-0.007849658,-0.300239146,-0.953827381,0.140394062,-0.01867367,0.217281938,0.677051842,1.011669397,-10.05744839,0.5844408,0.759057032,34.94906808,10235741,0.730415223,1.204887833,-40.89800671
413,1515079479,36730768,-0.00359928,-0.007823273,-0.301325649,-0.953482449,0.131515563,-0.057821415,0.216694698,0.367736399,0.059083939,-10.52872276,0.663462552,0.730517803,35.0800579,10273644,0.734193216,1.20549484,-41.00617506
414,1515079479,46995036,-0.004353363,-0.007709041,-0.302420557,-0.953133464,0.132592261,-0.062515154,0.219654441,-0.013241616,-0.615158558,-10.13304329,0.74270933,0.691141222,35.21199525,10264268,0.7340573,1.199180688,-41.11018333
415,1515079479,57317387,-0.005041386,-0.007665335,-0.303525418,-0.952779174,0.12615712,-0.035354894,0.219754502,-0.304300785,-0.425070524,-10.19340324,0.817114392,0.661572751,35.3451971,10322351,0.730916201,1.194792961,-41.21540322
416,1515079479,67603741,-0.005613221,-0.007802485,-0.304644883,-0.952417552,0.115967363,0.011696676,0.222216845,-0.272278696,-0.772059143,-10.00811195,0.885097185,0.655613779,35.48035951,10286354,0.728115446,1.186851287,-41.3183502
417,1515079479,77911055,-0.006098095,-0.008067662,-0.305783421,-0.952047408,0.109397411,0.030100411,0.226402313,0.063008063,-0.969970942,-10.21097183,0.948081279,0.66649103,35.61800236,10307314,0.728764889,1.176853492,-41.42359789
418,1515079479,88156522,-0.006549668,-0.00825986,-0.306926608,-0.951674819,0.097297028,0.001126002,0.226947144,0.368559659,-0.661209762,-10.36835194,1.004896329,0.670425566,35.75615505,10245467,0.732540955,1.170079089,-41.5298265
419,1515079479,98359604,-0.00699798,-0.008250885,-0.30807513,-0.951300561,0.085101232,-0.042747997,0.228361785,0.385001928,-0.966728985,-10.27957916,1.054264159,0.652403049,35.89470998,10203082,0.736469161,1.160215474,-41.63470989
420,1515079479,108557201,-0.007439862,-0.008103294,-0.309228778,-0.950924039,0.073747687,-0.054412652,0.23049894,0.110145845,-1.411274791,-10.37226105,1.097977499,0.619379217,36.03370785,10197597,0.737592384,1.145823862,-41.74048203
421,1515079479,118750113,-0.007796558,-0.008021859,-0.310394615,-0.950542033,0.058501977,-0.025613688,0.232729703,-0.166574895,-1.476272941,-10.42510986,1.134694957,0.596471881,36.17427638,10192912,0.735894501,1.130776342,-41.84674425
422,1515079479,128976492,-0.008006625,-0.008129743,-0.311568886,-0.950155079,0.043883294,0.019877229,0.234370783,-0.19103536,-1.820942879,-10.17059612,1.162160138,0.599313477,36.3161339,10226379,0.733940901,1.11215469,-41.95075263
423,1515079479,139230696,-0.008114995,-0.008330229,-0.312756658,-0.949762106,0.03075807,0.033913456,0.237529531,-0.108104482,-1.833351135,-10.26400089,1.181894572,0.615794468,36.45978038,10254204,0.732832376,1.093355134,-42.05600178
424,1515079479,144393878,-0.008183155,-0.008419264,-0.313955158,-0.949365258,0.01581612,0.015387294,0.237737775,-0.03779804,-1.438071847,-10.24081802,1.193292337,0.621535384,36.60458419,5163182,0.732637218,1.085930107,-42.10887699
425,1515079479,154636914,-0.008224185,-0.008353512,-0.315158665,-0.948966622,0.00237349,-0.008698069,0.239160642,0.021098657,-1.26969552,-10.13556767,1.19616523,0.611389751,36.74978308,10243036,0.732853332,1.07292457,-42.21269598
426,1515079479,164892949,-0.008210547,-0.00831043,-0.316362292,-0.948566496,-0.002370503,-0.003033467,0.24097617,-0.027806576,-1.266419649,-9.93717289,1.193894239,0.605683555,36.89506572,10256035,0.732568147,1.059936126,-42.31461197
427,1515079479,175204121,-0.008112051,-0.00840441,-0.317571729,-0.948162317,-0.012929168,0.026141785,0.240858734,-0.112010583,-1.057926536,-10.10641098,1.187384917,0.617956972,37.04129577,10311172,0.731413186,1.049027663,-42.41882091
428,1515079479,185491110,-0.007941359,-0.008587879,-0.31878531,-0.94775486,-0.023685077,0.05204678,0.241642535,-0.058058951,-1.021263003,-10.27153873,1.176341688,0.642598895,37.18819919,10286989,0.730815934,1.038521942,-42.52448412
429,1515079479,195781922,-0.007746435,-0.008729211,-0.320006698,-0.947343409,-0.030990705,0.040015027,0.243751764,0.010836806,-0.909636557,-10.0908432,1.161192152,0.663574393,37.33602113,10290812,0.730927454,1.029161043,-42.62832709
430,1515079479,206089162,-0.007528156,-0.008808967,-0.32123515,-0.94692862,-0.0382808,0.032745283,0.2467715,0.161063775,-0.880411208,-9.880048752,1.141301353,0.678759387,37.48464804,10307240,0.732587577,1.020086434,-42.73016312
431,1515079479,216350932,-0.007272196,-0.008893204,-0.322468668,-0.946510434,-0.044075657,0.045560535,0.246462703,0.331615686,-0.873776078,-10.10968876,1.117534356,0.695869169,37.63393386,10261770,0.735990541,1.011119945,-42.83390642
432,1515079479,226635266,-0.006969674,-0.009056541,-0.323700458,-0.946090639,-0.051763076,0.057878044,0.244727165,0.342209935,-0.884992003,-9.902001381,1.091700608,0.723346605,37.78317542,10284334,0.739509942,1.002018391,-42.93574191
433,1515079479,236877561,-0.006659736,-0.009204168,-0.324917734,-0.945674062,-0.052025512,0.043631207,0.244811833,0.080129951,-0.500142217,-9.951487541,1.064540291,0.749481839,37.93068628,10242295,0.740330657,0.996895787,-43.03766798
434,1515079479,247117194,-0.006354039,-0.0092629,-0.326135039,-0.945256472,-0.05430232,0.027119678,0.244993895,-0.026809959,-0.206906825,-9.803318024,1.034584107,0.76590024,38.07812046,10239633,0.740056133,0.994777137,-43.13805036
435,1515079479,257406492,-0.006014496,-0.00936817,-0.327367246,-0.94483161,-0.057236116,0.05019119,0.245386049,0.149449855,0.032955486,-10.09057617,1.002767102,0.788689185,38.22747418,10289298,0.741593867,0.995116226,-43.24187531
436,1515079479,267690957,-0.00561411,-0.009632983,-0.328596413,-0.944404662,-0.059586417,0.091184273,0.24564293,0.448878199,-0.022733226,-10.11296177,0.970435925,0.831122527,38.37672956,10284465,0.746210339,0.994882427,-43.34588171
437,1515079479,277934265,-0.005171075,-0.009939384,-0.329809934,-0.943980873,-0.064906441,0.092448547,0.243120909,0.438224107,-0.33546716,-9.601296425,0.935161968,0.879767286,38.52417241,10243308,0.750699203,0.991446133,-43.44423074
438,1515079479,288205518,-0.004765923,-0.010141783,-0.331022233,-0.943556428,-0.067737967,0.056910701,0.242909282,0.347311258,-0.166661784,-10.154006,0.900162457,0.915822485,38.67138409,10271253,0.754266525,0.989734308,-43.54852511
439,1515079479,298407191,-0.004395237,-0.010211348,-0.332238019,-0.943130076,-0.070592806,0.03665369,0.243851066,0.516601682,0.074358933,-9.919074059,0.863925306,0.936296436,38.81889528,10201673,0.759536727,0.990492894,-43.64971626
440,1515079479,308638796,-0.004008972,-0.010283006,-0.3334499,-0.942703247,-0.071875736,0.044285871,0.243424267,0.53822273,0.006615533,-10.05543327,0.826135796,0.957689953,38.96598378,10231605,0.765043609,0.990560581,-43.75259948
441,1515079479,318875403,-0.003590084,-0.01047899,-0.334654391,-0.942275822,-0.069152035,0.075586848,0.242592812,0.124182761,0.256414473,-9.713103294,0.789644081,0.993863649,39.11239154,10236607,0.766314819,0.993185395,-43.8520287
442,1515079479,329144917,-0.003115262,-0.010791854,-0.335856169,-0.941846311,-0.07152728,0.099683404,0.240248337,0.139914006,0.574023247,-9.960208893,0.751707756,1.044902374,39.25865188,10269514,0.767751668,0.999080335,-43.95431521
443,1515079479,334268104,-0.002652505,-0.011049984,-0.337047517,-0.941419065,-0.07184875,0.080995485,0.237897843,0.680405259,0.47302866,-9.952843666,0.713077417,1.089676191,39.40361977,5123187,0.771237511,1.001503749,-44.00530549
444,1515079479,344487863,-0.00225409,-0.011208201,-0.338236094,-0.940991879,-0.067600414,0.053984437,0.238770813,0.778778434,0.640556097,-9.783611298,0.677622157,1.121282512,39.54821143,10219759,0.779196439,1.008050078,-44.10529163
445,1515079479,354721835,-0.001858425,-0.011333148,-0.339414358,-0.940566897,-0.065752789,0.050878253,0.237077966,0.496196985,0.892186046,-9.864812851,0.641236976,1.149293801,39.69155533,10233972,0.784274505,1.017180685,-44.20624785
446,1515079479,364985360,-0.001443531,-0.011527705,-0.340594739,-0.940138459,-0.064671583,0.068177938,0.236500964,0.657922626,0.835960567,-10.01927376,0.605573324,1.185646581,39.83529462,10263525,0.791027111,1.025760587,-44.30908092
447,1515079479,375182315,-0.001028747,-0.011757152,-0.341788858,-0.93970269,-0.063729286,0.071619473,0.239843562,0.886989951,0.918198168,-9.854101181,0.571399801,1.225835097,39.98081354,10196955,0.800071707,1.035123413,-44.40956275
448,1515079479,385377651,-0.000640876,-0.011910556,-0.342976004,-0.93926847,-0.06719964,0.055832122,0.240326449,0.62230587,0.914380729,-9.687490463,0.537226526,1.256872794,40.12545529,10195336,0.806416325,1.044445832,-44.50832997
449,1515079479,395606193,-0.000285434,-0.011987105,-0.344154745,-0.938836396,-0.065670989,0.04100538,0.237023771,0.349018931,0.714597464,-9.526963234,0.503577772,1.278454808,40.26905255,10228542,0.809986279,1.051755122,-44.60577691
450,1515079479,405831692,4.19954E-05,-0.012050687,-0.345340282,-0.938400209,-0.060812593,0.036372378,0.238205016,0.385346502,0.889163852,-9.857112885,0.472493473,1.297616276,40.41355258,10225499,0.81392664,1.060847266,-44.70657081
451,1515079479,416112271,0.000383953,-0.012178841,-0.346532226,-0.937958956,-0.056505926,0.054652631,0.241605848,0.341007501,1.134500742,-9.645874977,0.442472189,1.324372963,40.55897116,10280579,0.817432394,1.07251059,-44.80573599
452,1515079479,426319354,0.000746274,-0.012425182,-0.347732902,-0.937511027,-0.051339213,0.080959216,0.243500099,0.303069413,1.328831673,-9.540126801,0.415057949,1.364713907,40.70566042,10207083,0.820525849,1.086074086,-44.90311285
453,1515079479,436529689,0.001104421,-0.012713894,-0.348938733,-0.937058687,-0.046995141,0.080311164,0.242356062,0.5679726,1.133963943,-9.642170906,0.389899918,1.409508369,40.85310651,10210335,0.826325039,1.097652237,-45.00156265
454,1515079479,446808402,0.001407219,-0.012914746,-0.350147456,-0.9366045,-0.042999007,0.055535242,0.243439794,0.850636721,0.994310975,-9.416987419,0.367276914,1.442716192,41.00090839,10278713,0.83506849,1.107872474,-45.09835716
455,1515079479,457038368,0.001634832,-0.012994191,-0.351359963,-0.936148882,-0.036088139,0.025722053,0.246727318,0.725316703,1.192516804,-9.373093605,0.347922509,1.459929704,41.14916099,10229966,0.842488455,1.120071881,-45.19424359
456,1515079479,467251691,0.001834643,-0.01307163,-0.35257262,-0.935691357,-0.032245476,0.029593173,0.246308982,0.275167972,1.463202715,-9.178771973,0.331515132,1.475856817,41.29752967,10213323,0.845298835,1.135016043,-45.28798935
457,1515079479,477502351,0.002070375,-0.013270681,-0.353798032,-0.935225427,-0.031266056,0.062762856,0.248062193,0.330876231,1.476216912,-9.330536842,0.316254494,1.506316004,41.44766146,10250660,0.848690534,1.15014824,-45.38363351
458,1515079479,487725611,0.002332673,-0.013580353,-0.355029821,-0.934753478,-0.029121568,0.082272008,0.249933407,0.672775149,1.000507593,-9.479448318,0.302743379,1.549747681,41.59877244,10223260,0.85556849,1.16037669,-45.48054438
459,1515079479,498020350,0.002560763,-0.013883051,-0.356264651,-0.934278488,-0.025595024,0.070584632,0.252832711,0.809972644,0.978581548,-9.402281761,0.292732224,1.591072877,41.75036442,10294739,0.863906947,1.170450931,-45.57733841
460,1515079479,508304253,0.002743151,-0.014073881,-0.357502848,-0.933802009,-0.023560237,0.041788992,0.252760619,0.648185432,1.045745254,-9.677170753,0.283143004,1.618580731,41.90234365,10283903,0.870572823,1.181205274,-45.6768575
461,1515079479,518520750,0.002856102,-0.014159108,-0.358758628,-0.933318615,-0.015691141,0.020311283,0.255391657,0.514938354,1.009557962,-9.835053444,0.27674299,1.631959739,42.05649461,10216497,0.875833689,1.19151942,-45.77733729
462,1515079479,528786941,0.002943033,-0.014248637,-0.360015959,-0.932832718,-0.009099486,0.031252068,0.256383479,0.315299124,1.458724976,-9.915923119,0.273343443,1.644744695,42.21095783,10266191,0.87907061,1.206494969,-45.87913605
463,1515079479,534247630,0.003073723,-0.014457918,-0.36127609,-0.932341754,-0.007926116,0.060716435,0.256733656,0.122806996,1.486588001,-9.759192467,0.270270263,1.672149176,42.3659672,5460689,0.879741221,1.214612764,-45.93242797
464,1515079479,544539119,0.003241935,-0.01478927,-0.362539411,-0.931845427,-0.005694008,0.076735847,0.257446885,0.395534635,1.018552661,-9.86517334,0.268346835,1.714160731,42.52158799,10291489,0.883811861,1.225095187,-46.03395529
465,1515079479,554772147,0.003360845,-0.015082614,-0.36381489,-0.931343079,-0.003339477,0.05475378,0.260673523,0.903690815,1.166858673,-10.34907532,0.27023998,1.750063798,42.67880627,10233028,0.893059355,1.237035685,-46.13985767
466,1515079479,565023151,0.003406589,-0.015216421,-0.365087867,-0.930842519,-0.000186993,0.015964676,0.260537744,0.975677371,1.379591107,-10.15334034,0.273355242,1.765882968,42.83565908,10251004,0.903061027,1.251177879,-46.2439396
467,1515079479,575244811,0.003386926,-0.015243575,-0.36635682,-0.930343449,0.003240794,0.000176177,0.260367602,0.680429697,1.248962164,-10.16738415,0.279001965,1.767578252,42.99202248,10221660,0.910016148,1.263944345,-46.34786715
468,1515079479,585471942,0.003341164,-0.015264536,-0.367637753,-0.929837823,0.007708422,0.007812231,0.263017505,0.614553213,1.249817371,-10.30742264,0.287198775,1.76749773,43.14997284,10227131,0.916301264,1.276726391,-46.45328251
469,1515079479,595728341,0.003302874,-0.015381165,-0.368924946,-0.929326057,0.014787959,0.029152051,0.263793945,0.696334839,1.267510295,-10.42489529,0.298661671,1.777901759,43.30892643,10256399,0.923443152,1.289726483,-46.56020439
470,1515079479,605915004,0.003265426,-0.015556364,-0.370204031,-0.92881453,0.018390547,0.032407716,0.263444483,0.614370584,1.348788261,-10.23832417,0.312537548,1.794550971,43.46706916,10186663,0.929701539,1.303466134,-46.66449875
471,1515079479,616212188,0.003176265,-0.015655102,-0.37147516,-0.928305447,0.023829201,0.006660083,0.261354268,0.53495425,1.266234875,-10.18533897,0.328691011,1.800830116,43.62426223,10297184,0.935210061,1.316504788,-46.76937906
472,1515079479,626463442,0.003026178,-0.015645981,-0.372747481,-0.927796006,0.02671745,-0.016417883,0.260539472,0.778274477,1.093770742,-10.56390381,0.346733903,1.792994918,43.78159625,10251254,0.94318835,1.327717309,-46.87767232
473,1515079479,636701582,0.002829531,-0.015590251,-0.374012619,-0.927288294,0.030873273,-0.024705611,0.259033352,0.757009029,1.164664745,-10.56889343,0.367693026,1.778166356,43.9381094,10238140,0.950938715,1.33964131,-46.98587813
474,1515079479,646895821,0.002623046,-0.015572979,-0.375268042,-0.926781833,0.035650745,-0.013990125,0.258668959,0.375373811,1.495585561,-10.35691071,0.391295787,1.766949539,44.09358243,10194239,0.954765365,1.354887667,-47.09145896
475,1515079479,657111583,0.002429567,-0.015630579,-0.376512736,-0.926276386,0.040034331,-0.000142568,0.256162822,0.393823296,1.45179379,-10.52982616,0.416702699,1.764186483,44.24792377,10215762,0.95878857,1.369718847,-47.19902915
476,1515079479,667337961,0.002204243,-0.015692208,-0.377752066,-0.925771177,0.045149952,-0.006885281,0.254885852,0.742292225,1.365411043,-10.66418648,0.445648197,1.76040917,44.40173721,10226378,0.966379531,1.383682056,-47.30808516
477,1515079479,677542974,0.001902346,-0.015651375,-0.37897718,-0.92527169,0.0506979,-0.034768872,0.253535777,0.622542024,1.399505258,-10.43473721,0.478225577,1.742371902,44.55378817,10205013,0.97273258,1.397964025,-47.41457178
478,1515079479,687735811,0.001523329,-0.015508537,-0.380189478,-0.924777389,0.05856631,-0.057194181,0.250935793,0.132498026,1.259275079,-10.18587399,0.514459021,1.710085805,44.70423967,10192837,0.974083111,1.410799611,-47.51839474
479,1515079479,697977316,0.001133552,-0.015395072,-0.381403267,-0.924279869,0.061219987,-0.043599822,0.249709845,0.070126936,1.138224125,-10.38959217,0.553037405,1.680347455,44.85500766,10241505,0.974801316,1.422456739,-47.6247998
480,1515079479,708226566,0.00078093,-0.015411534,-0.382611156,-0.92378062,0.064181961,-0.015976449,0.248610303,0.423552752,1.015753031,-10.49018669,0.593297513,1.665899727,45.00531341,10249250,0.979142415,1.432867446,-47.73231634
481,1515079479,718482322,0.000446089,-0.015497839,-0.383823365,-0.923276365,0.067783564,-0.006949233,0.251167208,0.504426777,0.710499942,-10.11676311,0.634723287,1.659518713,45.15634426,10255756,0.984315692,1.44015416,-47.8360714
482,1515079479,728719479,7.79971E-05,-0.01550681,-0.385023683,-0.922776401,0.067079484,-0.031754926,0.247608393,0.344089925,0.473171175,-10.24485874,0.676213871,1.643393643,45.30586851,10237157,0.987838195,1.444998087,-47.94094962
483,1515079479,738987032,-0.000360482,-0.015350985,-0.386221796,-0.922278166,0.066874176,-0.068821162,0.247528151,0.345772386,0.363299698,-10.42235661,0.71779876,1.606629808,45.45494717,10267553,0.991388431,1.448728286,-48.04796172
484,1515079479,744160506,-0.000830633,-0.015101231,-0.387419492,-0.921779454,0.064774737,-0.080227107,0.246922627,0.155813277,0.253531784,-10.1750145,0.758460053,1.558431202,45.60387892,5173474,0.992194527,1.450039926,-48.1006019
485,1515079479,754396619,-0.001253717,-0.014927964,-0.388619334,-0.921276629,0.062673509,-0.053747207,0.249872014,-0.370725811,0.093572646,-9.783704758,0.797441531,1.520300196,45.75324027,10236113,0.988399736,1.450997747,-48.200749
486,1515079479,764666759,-0.00157666,-0.014929757,-0.389820874,-0.920768321,0.054175623,-0.013016737,0.249825254,-0.549450934,-0.171205983,-9.865867615,0.833588947,1.505016078,45.90312451,10270140,0.982756798,1.449239437,-48.30207285
487,1515079479,774907226,-0.001824842,-0.015016786,-0.391023159,-0.920256555,0.04516815,-0.000132682,0.249420971,-0.030421933,-0.647479057,-10.04014111,0.865638014,1.501979203,46.05327618,10240467,0.982445263,1.442608949,-48.40488858
488,1515079479,785166826,-0.002076128,-0.015019721,-0.392237067,-0.919739246,0.038376827,-0.023156606,0.252901107,0.355944633,-0.921897411,-9.890673637,0.894243038,1.489845871,46.20478293,10259600,0.986097113,1.433150651,-48.50636293
489,1515079479,795449166,-0.002345517,-0.014880923,-0.393445432,-0.91922456,0.031852968,-0.048030011,0.252556324,0.132608041,-0.734931231,-9.697259903,0.91831834,1.461897317,46.3553925,10282340,0.987460634,1.425593838,-48.60607346
490,1515079479,805710755,-0.002594369,-0.014675284,-0.394667894,-0.91870302,0.022154177,-0.051970627,0.254122674,-0.13172853,-0.959476709,-9.832573891,0.937155162,1.427765316,46.50767174,10261589,0.98610889,1.415748082,-48.70697129
491,1515079479,815963015,-0.002783762,-0.014491476,-0.39588958,-0.918179572,0.014788666,-0.040028173,0.254884571,-0.196738422,-1.000765443,-9.780350685,0.950636672,1.398581595,46.65991646,10252260,0.984091876,1.405487975,-48.80724199
492,1515079479,826245580,-0.002879957,-0.014408633,-0.397129297,-0.917645037,0.005902002,-0.013226173,0.258240372,-0.403171837,-0.761750937,-9.704874992,0.95886791,1.384205333,46.81461555,10282565,0.979946236,1.397655221,-48.907033
493,1515079479,836484811,-0.002901061,-0.014388177,-0.398368478,-0.917108059,-0.004667313,0.001861251,0.257004112,-0.50186789,-0.856591463,-9.515129089,0.962020292,1.379795287,46.96939508,10239231,0.974807494,1.388884383,-49.0044606
494,1515079479,846731848,-0.002890931,-0.014357544,-0.399615467,-0.916565835,-0.009941925,-0.001702341,0.258936912,-0.298179269,-0.941398144,-9.581399918,0.961427448,1.375732133,47.12518414,10247037,0.97175204,1.379237842,-49.10264156
495,1515079479,856952181,-0.002867423,-0.014270598,-0.400872558,-0.916018188,-0.01532937,-0.014047461,0.260922015,-0.115276381,-0.779913902,-9.587375641,0.956846996,1.366365257,47.28219809,10220333,0.970573877,1.371266862,-49.20062773
496,1515079479,867196514,-0.002829848,-0.014145923,-0.402126968,-0.915470243,-0.020346109,-0.01860016,0.261049837,-0.380952179,-0.505740583,-9.491909027,0.949023087,1.353705865,47.43887553,10244333,0.966671276,1.366085887,-49.29786601
497,1515079479,877462257,-0.002741102,-0.014060072,-0.403379917,-0.914920509,-0.026587896,-0.002860673,0.260494649,-0.737322032,-0.381781191,-9.593446732,0.937595981,1.347508106,47.59549992,10265743,0.959102118,1.362166619,-49.39634987
498,1515079479,887655450,-0.002571916,-0.014047502,-0.40463388,-0.914367259,-0.038359549,0.023133527,0.260804236,-0.54560554,-0.572018266,-9.565724373,0.921127872,1.35275198,47.75241845,10193193,0.953540655,1.356335927,-49.49385514
499,1515079479,897851413,-0.002347172,-0.014101138,-0.405883759,-0.913812935,-0.041294057,0.036775909,0.259337246,-0.192186728,-0.706852198,-9.379030228,0.901934864,1.367565066,47.90900616,10195963,0.951581127,1.349128888,-49.58948339
500,1515079479,908071528,-0.002084329,-0.014161543,-0.40713194,-0.913257182,-0.04551091,0.033843633,0.260172129,-0.102539629,-0.449478894,-9.2629776,0.879110533,1.384920447,48.06544825,10220115,0.95053316,1.344535162,-49.68415208
501,1515079479,918326004,-0.001834912,-0.014178745,-0.408378303,-0.912700832,-0.049332492,0.021998622,0.260084957,-0.172090948,0.184504151,-9.432872772,0.855714187,1.397194608,48.22168148,10254476,0.948768457,1.346427155,-49.78088125
502,1515079479,928554630,-0.001585914,-0.014133872,-0.409618229,-0.912146211,-0.053168252,0.0115032,0.257330924,-0.250672132,0.19601655,-9.333699226,0.829470999,1.403031845,48.37707242,10228626,0.946204426,1.348432135,-49.87635217
503,1515079479,938762446,-0.001340562,-0.014131958,-0.410862416,-0.911586821,-0.047725804,0.029173475,0.25958848,-0.336641908,0.165476173,-9.101158142,0.80565882,1.413254284,48.53318411,10207816,0.942768047,1.350121286,-49.96925512
504,1515079479,943906718,-0.001064434,-0.014212311,-0.41210264,-0.911025941,-0.044585064,0.050442863,0.258231401,-0.475419044,0.474360883,-9.025870323,0.782546601,1.433590095,48.68903082,5144272,0.940322362,1.352561527,-50.01568665
505,1515079479,954071847,-0.000731014,-0.014413035,-0.413335949,-0.910464287,-0.044424854,0.0693627,0.257092535,-0.534385502,0.559614301,-9.196733475,0.759210313,1.469270619,48.84428817,10165129,0.934890265,1.358250079,-50.10917263
506,1515079479,964297511,-0.000377456,-0.014677145,-0.414570481,-0.909898818,-0.042756684,0.080405883,0.257110357,-0.166207135,0.622076988,-9.311182976,0.736889732,1.512581921,48.99989777,10225664,0.933190686,1.364611229,-50.20438566
507,1515079479,974504928,-6.99593E-05,-0.014904559,-0.415799111,-0.909334362,-0.040627174,0.06708999,0.255289316,0.141803205,1.023501396,-9.316654205,0.717729791,1.549941124,49.1548303,10207417,0.934638131,1.375058534,-50.29948463
508,1515079479,984709306,0.000176915,-0.015070084,-0.417021006,-0.908771873,-0.032833911,0.048154436,0.254588366,-0.093742557,1.392478585,-9.300171852,0.702015714,1.578015849,49.30894685,10204378,0.933681546,1.389267912,-50.3943871
509,1515079479,994892603,0.000411204,-0.015238491,-0.418227315,-0.908214509,-0.027856218,0.054479733,0.252151966,-0.400407284,1.112598896,-9.078330994,0.687800613,1.605843718,49.46121383,10183297,0.92960408,1.400597837,-50.48683444
510,1515079480,5124438,0.000643162,-0.015503079,-0.419436991,-0.907651842,-0.019125845,0.075036973,0.252444565,-0.235697389,1.293360949,-9.11977005,0.678539207,1.643601759,49.6142033,10231835,0.927192463,1.413831293,-50.58014643
511,1515079480,15314708,0.000884513,-0.015875785,-0.420642316,-0.907087266,-0.012881909,0.095815644,0.251146346,-0.023499444,1.698115706,-9.170513153,0.673614799,1.693082933,49.76696525,10190270,0.926952998,1.431135551,-50.67359643
512,1515079480,25541214,0.0011288,-0.016312925,-0.42183581,-0.906524777,-0.008759632,0.103487089,0.251182079,-0.065059163,1.569087267,-8.988087654,0.671616165,1.749424773,49.91847208,10226506,0.92628767,1.447181831,-50.76551316
513,1515079480,35766902,0.001335699,-0.016744526,-0.423023254,-0.905963123,-0.003865956,0.091381416,0.249723479,0.095082432,1.251461983,-9.250375748,0.673371632,1.80339074,50.06935932,10225688,0.927259953,1.459978891,-50.86010462
514,1515079480,46045893,0.001460986,-0.017126402,-0.424221665,-0.905395269,0.006837296,0.082855776,0.250643611,0.403267562,1.125484586,-9.25177002,0.681344652,1.848217728,50.22173794,10278991,0.931405137,1.471547737,-50.95520348
515,1515079480,56280750,0.001577909,-0.017467236,-0.425413877,-0.904828966,0.00380574,0.078599975,0.251801133,0.293861747,0.748313189,-9.254123688,0.68829118,1.888366749,50.37335695,10234857,0.934412769,1.479206615,-51.04991811
516,1515079480,66531809,0.00170466,-0.017851021,-0.426611751,-0.904257059,0.00292728,0.08665441,0.253512204,-0.186000794,0.299774259,-9.288227081,0.696443225,1.933427973,50.52589381,10251059,0.932506064,1.482279619,-51.14513228
517,1515079480,76792016,0.001873762,-0.018293422,-0.42783016,-0.90367204,0.002456017,0.099073783,0.25721249,-0.11693684,0.301479757,-9.17212677,0.703254565,1.986602701,50.68123655,10260207,0.931306268,1.485372864,-51.2392402
